,timestamp,orientation_x,orientation_y,orientation_z,orientation_w,AccX,AccY,AccZ,GyroX,GyroY,GyroZ,roll,pitch,yaw
0,53264475564,-0.46728500000000006,0.272766,-0.7660520000000001,-0.347107,0.910645,-0.0742188,0.40918000000000004,21.0,-6.1875,22.875,-0.22189099999999998,-1.13206,2.4321099999999998
1,53264490807,-0.46875,0.27179000000000003,-0.767456,-0.342773,0.90625,-0.0756836,0.405273,20.375,-7.25,18.125,-0.228086,-1.1333,2.44705
2,53264514381,-0.470703,0.27050799999999997,-0.768372,-0.33905,0.9165040000000001,-0.07324220000000001,0.39257800000000004,20.4375,-7.875,13.0625,-0.230911,-1.1355899999999999,2.4582200000000003
3,53264535721,-0.4729,0.268921,-0.768921,-0.335938,0.9165040000000001,-0.0795898,0.384766,19.9375,-8.0625,8.4375,-0.23064,-1.13831,2.46577
4,53264550856,-0.47522,0.266968,-0.7692260000000001,-0.333557,0.9277340000000001,-0.0703125,0.38769499999999996,19.375,-7.9375,3.6875,-0.22691,-1.14136,2.46937
5,53264573223,-0.4776,0.264893,-0.7692260000000001,-0.331909,0.935059,-0.0678711,0.400879,17.6875,-8.0625,-0.3125,-0.220621,-1.14475,2.4695
6,53264596762,-0.47998,0.262817,-0.768921,-0.330811,0.9282229999999999,-0.06933589999999999,0.39502,15.6875,-8.3125,-3.8125,-0.212662,-1.14818,2.46697
7,53264626937,-0.482422,0.260681,-0.768311,-0.330261,0.9316409999999999,-0.0649414,0.398438,14.0625,-8.625,-7.0,-0.202677,-1.1517700000000002,2.46156
8,53264637366,-0.48492399999999997,0.258423,-0.7676390000000001,-0.330017,0.9394530000000001,-0.0644531,0.399414,14.0,-8.4375,-9.3125,-0.191218,-1.1556600000000001,2.45456
9,53264657642,-0.48742700000000005,0.25592,-0.766968,-0.329834,0.9428709999999999,-0.0708008,0.398926,14.9375,-8.1875,-11.0,-0.178424,-1.15925,2.4464
10,53264671855,-0.490051,0.25317399999999995,-0.766235,-0.329651,0.9433590000000001,-0.0664062,0.395996,16.4375,-8.125,-12.0625,-0.164251,-1.16277,2.4371400000000003
11,53264693947,-0.492676,0.250305,-0.765564,-0.329529,0.9389649999999999,-0.060058600000000004,0.38623,17.1875,-7.625,-12.5,-0.149297,-1.16634,2.42732
12,53264717523,-0.49523900000000004,0.247375,-0.764893,-0.329407,0.9433590000000001,-0.052246100000000004,0.37011700000000003,17.0,-6.25,-12.5,-0.133946,-1.16957,2.4170700000000003
13,53264755808,-0.49755900000000003,0.244446,-0.764404,-0.329346,0.949707,-0.0332031,0.364746,16.1875,-3.875,-11.625,-0.118737,-1.1724,2.40699
14,53264757342,-0.499329,0.241821,-0.764099,-0.329285,0.948242,-0.032714799999999995,0.37011700000000003,14.6875,-2.0625,-9.5625,-0.105511,-1.1740700000000002,2.39815
15,53264776185,-0.500732,0.239319,-0.764038,-0.329041,0.9433590000000001,-0.036621100000000004,0.365723,14.0,-0.4375,-8.1875,-0.0939315,-1.17489,2.3909
16,53264790623,-0.502075,0.237,-0.764099,-0.328613,0.949219,-0.032714799999999995,0.351074,14.0,1.0,-6.3125,-0.0837794,-1.1758899999999999,2.3852700000000002
17,53264813818,-0.503052,0.23486300000000002,-0.764404,-0.32800300000000004,0.9501950000000001,-0.0292969,0.351074,13.3125,2.625,-4.25,-0.07561,-1.1761700000000002,2.38154
18,53264844482,-0.50354,0.233215,-0.764832,-0.327454,0.949707,-0.022460900000000002,0.352539,10.5,4.0625,-1.8125,-0.0700952,-1.1757600000000001,2.37948
19,53264850400,-0.5036619999999999,0.23205599999999998,-0.76532,-0.326965,0.95752,-0.00439453,0.34179699999999996,6.75,6.1875,1.0,-0.0670084,-1.17496,2.37894
20,53264873744,-0.502991,0.231567,-0.766113,-0.326355,0.9462889999999999,-0.012206999999999999,0.35498,3.3125,7.8125,4.625,-0.0684292,-1.1728100000000001,2.38174
21,53264896237,-0.5020140000000001,0.23168899999999998,-0.7670899999999999,-0.32556199999999996,0.940918,-0.0214844,0.352051,0.9375,8.875,7.375,-0.0734138,-1.17074,2.3877
22,53264910584,-0.500732,0.23217800000000002,-0.76825,-0.324402,0.9428709999999999,-0.0332031,0.358887,0.5,9.125,10.1875,-0.0813712,-1.16811,2.39642
23,53264933860,-0.49938999999999995,0.23278800000000002,-0.7696529999999999,-0.322754,0.933105,-0.0507812,0.365723,1.875,8.6875,12.5625,-0.0913154,-1.16549,2.40781
24,53264956266,-0.498108,0.233276,-0.771179,-0.32074,0.9282229999999999,-0.0488281,0.36181599999999997,3.5625,8.625,14.3125,-0.101613,-1.16276,2.42027
25,53264970692,-0.49694799999999995,0.233765,-0.772766,-0.318298,0.925781,-0.055175800000000004,0.365234,5.0,8.125,16.1875,-0.112766,-1.16015,2.4342
26,53264993022,-0.49578900000000004,0.234314,-0.774475,-0.31561300000000003,0.921875,-0.0629883,0.362793,5.875,7.625,17.0625,-0.124759,-1.15764,2.4494
27,53265016128,-0.494751,0.234802,-0.776062,-0.312805,0.9204100000000001,-0.0610352,0.36181599999999997,6.1875,7.0625,17.875,-0.136389,-1.15504,2.46428
28,53265030403,-0.493835,0.235474,-0.7775880000000001,-0.31005900000000003,0.919434,-0.0576172,0.366211,5.25,6.0,18.125,-0.148313,-1.15309,2.47939
29,53265052924,-0.49291999999999997,0.236389,-0.77887,-0.30749499999999996,0.909668,-0.0629883,0.36230500000000004,3.4375,4.8125,17.625,-0.160409,-1.15111,2.49382
30,53265076167,-0.492188,0.237488,-0.779968,-0.305115,0.90625,-0.0639648,0.365234,2.125,3.625,17.1875,-0.17239200000000002,-1.14985,2.5077599999999998
31,53265090630,-0.49145500000000003,0.238525,-0.780945,-0.302917,0.913574,-0.054199199999999996,0.37011700000000003,0.9375,3.125,16.6875,-0.183474,-1.14839,2.52048
32,53265113047,-0.490845,0.23962399999999998,-0.781799,-0.300781,0.9155270000000001,-0.0634766,0.37255900000000003,0.8125,2.375,16.0625,-0.194393,-1.14724,2.53289
33,53265136160,-0.490356,0.240662,-0.782654,-0.29870599999999997,0.911133,-0.07373049999999999,0.389648,1.375,0.75,15.125,-0.20480399999999999,-1.1465100000000001,2.5449900000000003
34,53265150624,-0.49017299999999997,0.24151599999999998,-0.783325,-0.296448,0.913574,-0.09033200000000001,0.38916,3.25,-0.9375,13.875,-0.214498,-1.146,2.55677
35,53265173104,-0.490417,0.242004,-0.783936,-0.294128,0.917969,-0.09033200000000001,0.38623,5.6875,-2.125,12.3125,-0.222556,-1.14636,2.5678
36,53265196132,-0.490784,0.24212600000000004,-0.784485,-0.29186999999999996,0.911133,-0.0976562,0.39355500000000004,7.25,-3.125,10.625,-0.22882800000000003,-1.14659,2.5773900000000003
37,53265210525,-0.49139399999999994,0.24218800000000001,-0.7848510000000001,-0.28979499999999997,0.8959959999999999,-0.102051,0.39502,7.375,-4.6875,8.8125,-0.234159,-1.14743,2.58595
38,53265233028,-0.49231,0.241943,-0.785034,-0.287842,0.8969729999999999,-0.09863279999999999,0.38867199999999996,8.3125,-5.75,6.9375,-0.237652,-1.14873,2.59295
39,53265256136,-0.49334700000000004,0.24151599999999998,-0.785217,-0.286072,0.903809,-0.0976562,0.39209,8.9375,-5.9375,5.25,-0.23994200000000002,-1.15046,2.59891
40,53265271959,-0.494385,0.24078400000000003,-0.7852779999999999,-0.284729,0.9008790000000001,-0.08935549999999999,0.394043,8.5625,-5.5625,3.25,-0.23980300000000002,-1.15199,2.60215
41,53265293022,-0.49536099999999994,0.240112,-0.785217,-0.28369099999999997,0.9057620000000001,-0.0854492,0.399414,7.125,-5.6875,1.875,-0.239092,-1.15345,2.6042
42,53265316165,-0.496338,0.23962399999999998,-0.7849729999999999,-0.28302,0.9033200000000001,-0.08251950000000001,0.398438,5.1875,-5.8125,0.75,-0.23809699999999998,-1.15516,2.60513
43,53265331915,-0.497192,0.239075,-0.78479,-0.28241,0.908691,-0.09179689999999999,0.416504,4.75,-6.125,-0.3125,-0.236788,-1.15654,2.6057099999999997
44,53265353038,-0.497925,0.238281,-0.7849119999999999,-0.281494,0.898438,-0.12353499999999999,0.45556599999999997,8.0625,-7.625,-1.0625,-0.235529,-1.15751,2.60722
45,53265376324,-0.498779,0.236511,-0.785583,-0.279724,0.894531,-0.166992,0.505371,16.375,-9.5625,-1.875,-0.232692,-1.15795,2.61
46,53265392000,-0.500183,0.233154,-0.786682,-0.276917,0.897949,-0.183594,0.502441,28.8125,-9.5625,-3.5,-0.225847,-1.15824,2.6127700000000003
47,53265413027,-0.5020140000000001,0.227356,-0.788391,-0.27355999999999997,0.9272459999999999,-0.141602,0.507812,41.75,-5.625,-4.75,-0.21037399999999998,-1.1578899999999999,2.61148
48,53265436287,-0.503113,0.22009299999999998,-0.790894,-0.270142,0.9233399999999999,-0.143066,0.5532229999999999,48.8125,-0.5625,-7.3125,-0.189975,-1.1548399999999999,2.60733
49,53265452135,-0.50354,0.211853,-0.793884,-0.267151,0.9223629999999999,-0.121582,0.577148,50.75,4.5,-9.8125,-0.165493,-1.14984,2.59979
50,53265473020,-0.502563,0.202454,-0.797913,-0.264404,0.9067379999999999,-0.09277339999999999,0.6347659999999999,54.25,13.0625,-9.8125,-0.13794800000000002,-1.14103,2.5903400000000003
51,53265496304,-0.499634,0.19165,-0.802979,-0.26251199999999997,0.924316,-0.022949200000000003,0.6733399999999999,54.8125,27.125,-9.875,-0.106003,-1.12673,2.57669
52,53265511973,-0.493958,0.18090799999999999,-0.809326,-0.261414,0.9306639999999999,-0.023925799999999997,0.7592770000000001,49.75,40.1875,-9.3125,-0.0772674,-1.10648,2.56455
53,53265533060,-0.486633,0.170837,-0.8161010000000001,-0.260864,0.958008,-0.0449219,0.78125,44.25,50.75,-9.375,-0.0532625,-1.0831,2.55494
54,53265556092,-0.47766099999999995,0.1604,-0.823242,-0.26159699999999997,0.996582,0.027832,0.772949,38.8125,65.125,-10.25,-0.028815499999999997,-1.05598,2.54311
55,53265572023,-0.46563699999999997,0.150574,-0.83136,-0.263428,0.9946290000000001,0.044433600000000004,0.812012,28.9375,82.875,-9.5,-0.00967,-1.0227700000000002,2.53336
56,53265592988,-0.451111,0.141968,-0.840088,-0.265808,0.9995120000000001,0.0532227,0.83252,17.9375,97.3125,-5.4375,0.00232864,-0.9852639999999999,2.52753
57,53265616255,-0.435242,0.135193,-0.848999,-0.267517,0.9912110000000001,0.0253906,0.8662110000000001,11.0,108.93799999999999,0.9375,0.0056655,-0.9464959999999999,2.52827
58,53265632375,-0.417358,0.129272,-0.858398,-0.268921,0.9780270000000001,-0.00585938,0.86377,5.5,119.5,6.75,0.00410582,-0.9043889999999999,2.53246
59,53265653001,-0.397461,0.12371800000000001,-0.868408,-0.269592,0.966309,-0.020996099999999997,0.844727,2.4375,130.625,13.125,-0.000873996,-0.8587459999999999,2.54005
60,53265676061,-0.376282,0.11828599999999999,-0.8787229999999999,-0.269043,0.9282229999999999,-0.04980469999999999,0.8344729999999999,3.5625,137.5,20.8125,-0.00785305,-0.810952,2.55083
61,53265691914,-0.354126,0.11224400000000001,-0.889282,-0.266846,0.9008790000000001,-0.0483398,0.828125,8.5,143.562,28.75,-0.0146933,-0.761129,2.56446
62,53265713058,-0.33111599999999997,0.10607899999999999,-0.899963,-0.263245,0.8579100000000001,-0.0483398,0.8251950000000001,10.8125,148.25,36.5625,-0.0218975,-0.71,2.58066
63,53265735530,-0.30743400000000004,0.09997560000000001,-0.9103389999999999,-0.25854499999999997,0.812012,-0.08300779999999999,0.8334959999999999,11.625,150.375,42.25,-0.029135900000000003,-0.6578729999999999,2.5981400000000003
64,53265752082,-0.28363,0.0936279,-0.9202879999999999,-0.252808,0.783203,-0.078125,0.827148,14.25,150.75,46.9375,-0.035188,-0.605755,2.6164400000000003
65,53265773000,-0.259521,0.08752439999999999,-0.929688,-0.24645999999999998,0.739258,-0.0703125,0.820801,12.9375,151.312,49.6875,-0.0409399,-0.5535260000000001,2.63499
66,53265795633,-0.235107,0.0820312,-0.938416,-0.23962399999999998,0.696289,-0.0859375,0.824707,10.125,151.0,52.6875,-0.0470935,-0.501305,2.65366
67,53265812031,-0.21106,0.076416,-0.946533,-0.231873,0.6499020000000001,-0.0864258,0.824707,11.9375,148.375,56.4375,-0.0519785,-0.450024,2.67305
68,53265833149,-0.18743900000000002,0.0700073,-0.954041,-0.22338899999999998,0.576172,-0.0820312,0.848145,17.375,145.375,58.5625,-0.054120900000000007,-0.399466,2.6926
69,53265855418,-0.164429,0.0630493,-0.960815,-0.21423299999999998,0.5424800000000001,-0.05664059999999999,0.8300780000000001,21.4375,142.188,60.375,-0.0540056,-0.350094,2.7124099999999998
70,53265872013,-0.141846,0.0557861,-0.966858,-0.205017,0.489746,-0.039550800000000004,0.848633,22.875,139.188,59.8125,-0.052088199999999994,-0.301721,2.73164
71,53265893007,-0.11969,0.0493774,-0.9721069999999999,-0.195801,0.433105,-0.016601599999999998,0.8432620000000001,18.3125,135.312,59.4375,-0.0507902,-0.254787,2.75062
72,53265915472,-0.0982056,0.043335000000000005,-0.976562,-0.18676800000000002,0.383789,-0.028320299999999996,0.848633,16.625,130.375,57.4375,-0.0490472,-0.209525,2.76884
73,53265931908,-0.07769780000000001,0.0371704,-0.980347,-0.177856,0.33056599999999997,-0.015625,0.8564450000000001,18.25,124.25,55.875,-0.0458908,-0.166329,2.78652
74,53265954379,-0.0581055,0.0304565,-0.983459,-0.16888399999999998,0.272949,-0.0219727,0.883301,22.0,119.18799999999999,54.875,-0.040606699999999996,-0.124901,2.80401
75,53265975666,-0.0393677,0.0234375,-0.986084,-0.160217,0.22168000000000002,-0.0356445,0.886719,24.6875,114.43799999999999,52.375,-0.033736800000000004,-0.08525310000000001,2.8209299999999997
76,53265992084,-0.0217896,0.015686000000000002,-0.988037,-0.1521,0.193359,-0.0205078,0.882324,29.8125,108.31200000000001,48.3125,-0.0243987,-0.0478477,2.83671
77,53266024045,-0.00488281,0.00769043,-0.989502,-0.144592,0.16406199999999999,0.029785200000000005,0.8652340000000001,30.6875,104.81200000000001,44.1875,-0.0138088,-0.011887299999999998,2.8515099999999998
78,53266035492,0.0101929,0.000305176,-0.9904790000000001,-0.13763399999999998,0.10986300000000002,0.038574199999999996,0.8491209999999999,26.5,99.9375,40.9375,-0.00341101,0.020109000000000002,2.86544
79,53266052019,0.024475099999999996,-0.00598145,-0.9910889999999999,-0.131104,0.0742188,0.0698242,0.8085939999999999,19.5,94.3125,37.8125,0.00544561,0.0501033,2.87871
80,53266074606,0.038147,-0.010498,-0.991394,-0.125122,0.0268555,0.08105470000000001,0.802246,9.125,87.1875,33.75,0.0113043,0.0783446,2.8909700000000003
81,53266097030,0.0508423,-0.0133667,-0.991455,-0.11969,-0.015625,0.07519529999999999,0.797363,1.6875,79.375,30.375,0.014412999999999999,0.10420399999999999,2.9020799999999998
82,53266111916,0.0625,-0.015625,-0.991394,-0.11450199999999999,-0.047851599999999994,0.0678711,0.7856449999999999,-0.6875,71.6875,28.5625,0.0168063,0.12785,2.91272
83,53266149369,0.0730591,-0.0178833,-0.99115,-0.10968,-0.07226560000000001,0.08300779999999999,0.758301,-0.4375,64.6875,26.4375,0.019643599999999997,0.149302,2.92265
84,53266155569,0.0824585,-0.019104,-0.990906,-0.10516400000000001,-0.0961914,0.0844727,0.741699,-5.9375,56.75,24.0,0.0208125,0.168228,2.93191
85,53266172015,0.0905762,-0.0189209,-0.9906010000000001,-0.101074,-0.11914100000000001,0.0756836,0.732422,-12.125,47.625,21.5625,0.0195079,0.184316,2.94005
86,53266203385,0.097229,-0.017761199999999998,-0.9903559999999999,-0.09747310000000001,-0.143066,0.028320299999999996,0.742676,-13.375,38.0625,18.6875,0.016547299999999997,0.197323,2.94703
87,53266218545,0.102173,-0.0170898,-0.990173,-0.0942383,-0.152832,0.00732422,0.758301,-7.9375,28.5625,17.25,0.0149055,0.207035,2.95338
88,53266247565,0.10571300000000002,-0.018066400000000003,-0.990051,-0.0913086,-0.17236300000000002,0.03613280000000001,0.7749020000000001,0.3125,20.75,16.375,0.016854499999999998,0.214257,2.95948
89,53266254390,0.10833699999999999,-0.0194702,-0.9899899999999999,-0.08874510000000001,-0.18798800000000002,0.053710900000000006,0.8061520000000001,2.125,15.4375,14.625,0.0197991,0.219725,2.9649799999999997
90,53266277005,0.11035199999999999,-0.0203857,-0.9899290000000001,-0.08660889999999999,-0.205566,0.057128899999999996,0.8217770000000001,0.25,10.8125,11.75,0.0217915,0.223877,2.96952
91,53266298067,0.11151099999999999,-0.0206299,-0.9899290000000001,-0.085022,-0.209473,0.046875,0.8383790000000001,-2.1875,5.625,8.6875,0.0224564,0.22620900000000002,2.9728
92,53266314604,0.111572,-0.0210571,-0.9899899999999999,-0.08380130000000001,-0.20165999999999998,0.0424805,0.870605,0.125,0.75,6.625,0.023597099999999996,0.22636799999999999,2.97538
93,53266336971,0.11071800000000001,-0.021850599999999998,-0.990173,-0.08288569999999999,-0.196777,0.030273400000000002,0.917969,3.5625,-3.6875,5.875,0.0255636,0.22476999999999997,2.9774599999999998
94,53266351981,0.109497,-0.022949200000000003,-0.9903559999999999,-0.0819702,-0.198242,0.047363300000000004,0.929199,4.6875,-5.625,5.875,0.028203500000000003,0.222475,2.97959
95,53266391415,0.10803199999999999,-0.0228271,-0.9906010000000001,-0.08105470000000001,-0.19775399999999999,0.041503899999999996,0.958008,-1.5,-7.1875,4.8125,0.0283971,0.21949200000000002,2.98145
96,53266395583,0.10656700000000001,-0.0217896,-0.9908450000000001,-0.0805664,-0.198242,0.04394530000000001,0.9682620000000001,-6.9375,-7.8125,2.375,0.0266327,0.216379,2.98224
97,53266411979,0.10528599999999999,-0.020080599999999997,-0.991028,-0.0804443,-0.20361300000000002,0.015136700000000001,0.976562,-8.8125,-7.6875,-0.3125,0.0233949,0.21353200000000003,2.9821299999999997
98,53266436574,0.104065,-0.018981900000000003,-0.99115,-0.08062739999999999,-0.198242,0.00488281,0.9838870000000001,-4.5,-6.5625,-1.3125,0.0213209,0.210909,2.98152
99,53266451383,0.102966,-0.0189209,-0.9912110000000001,-0.08093260000000001,-0.189453,0.0078125,0.9912110000000001,1.0625,-5.125,-1.4375,0.021306400000000003,0.208697,2.98089
100,53266481075,0.102051,-0.019104,-0.991333,-0.08117680000000001,-0.200195,0.0170898,0.9873049999999999,2.125,-4.8125,-1.1875,0.021774599999999998,0.206907,2.98046
101,53266494488,0.101379,-0.0189209,-0.991394,-0.0813599,-0.200195,0.012206999999999999,1.0,-0.3125,-3.4375,-0.75,0.0214732,0.205537,2.98006
102,53266526577,0.10082999999999999,-0.0178223,-0.991455,-0.0813599,-0.201172,-0.00244141,0.996094,-4.375,-3.0625,-0.5,0.019336000000000002,0.204254,2.9798299999999998
103,53266538066,0.10040299999999999,-0.0165405,-0.991455,-0.081665,-0.19775399999999999,-0.032714799999999995,0.996094,-3.6875,-2.625,-1.5625,0.016744799999999997,0.20318699999999998,2.97893
104,53266571408,0.10022,-0.0162964,-0.991455,-0.0819092,-0.19873,-0.0175781,1.00488,1.25,-0.5625,-1.1875,0.0162297,0.202783,2.97839
105,53266575471,0.100159,-0.016723599999999998,-0.991455,-0.0819702,-0.21337899999999999,0.00488281,0.9985350000000001,3.375,-0.8125,-0.0625,0.0170923,0.202733,2.97836
106,53266592159,0.10022,-0.017028799999999997,-0.991455,-0.08172610000000001,-0.216797,0.00927734,0.999023,1.875,-0.25,1.625,0.0177505,0.202899,2.97891
107,53266623580,0.100647,-0.0167847,-0.991516,-0.08105470000000001,-0.227539,0.00146484,0.992188,-1.0625,0.625,3.875,0.0173278,0.203713,2.9802400000000002
108,53266630958,0.100952,-0.016357399999999998,-0.991516,-0.08026119999999999,-0.228027,-0.0141602,0.9824219999999999,-0.875,0.1875,4.9375,0.016577500000000002,0.204234,2.98175
109,53266667665,0.101379,-0.016052200000000003,-0.991577,-0.0794067,-0.22656199999999999,-0.016113299999999997,0.980957,-0.125,0.5625,5.0,0.0160709,0.20503400000000002,2.98343
110,53266674508,0.10180700000000001,-0.015808100000000002,-0.9916379999999999,-0.0783081,-0.22705100000000003,-0.00927734,0.9829100000000001,-0.8125,1.0625,6.5625,0.0157401,0.205837,2.98562
111,53266713144,0.102539,-0.015197799999999997,-0.991699,-0.0768433,-0.239258,-0.00585938,0.965332,-3.3125,1.4375,8.25,0.014699200000000003,0.207191,2.98848
112,53266715750,0.10308800000000001,-0.013916,-0.9917600000000001,-0.0750122,-0.25195300000000004,-0.027343799999999998,0.9755860000000001,-5.8125,-0.5,10.1875,0.012404799999999999,0.208064,2.99191
113,53266733633,0.10321,-0.012512200000000001,-0.991943,-0.07299800000000001,-0.23144499999999998,-0.046386699999999996,0.979492,-5.5,-1.6875,11.25,0.00996968,0.208083,2.99573
114,53266757990,0.10351600000000001,-0.011474600000000001,-0.992065,-0.0706787,-0.233398,-0.04199219999999999,0.9692379999999999,-4.0625,-0.75,13.3125,0.00831462,0.20851799999999998,3.00022
115,53266771187,0.103699,-0.0106201,-0.9922489999999999,-0.0679932,-0.230469,-0.0288086,0.963867,-4.25,-1.0625,15.5625,0.00712879,0.208747,3.0055099999999997
116,53266802611,0.103577,-0.00921631,-0.9924930000000001,-0.0649414,-0.224609,-0.0483398,0.973633,-6.0,-2.25,17.1875,0.00494838,0.208298,3.0114400000000003
117,53266817686,0.10351600000000001,-0.00799561,-0.9927370000000001,-0.061523400000000006,-0.21923800000000002,-0.03613280000000001,0.966309,-6.4375,-1.8125,19.5,0.00320692,0.208008,3.01815
118,53266846009,0.10351600000000001,-0.00701904,-0.992981,-0.0574951,-0.225586,-0.0214844,0.967773,-6.5,-1.8125,22.4375,0.00208107,0.207879,3.02615
119,53266862537,0.10345499999999999,-0.00561523,-0.993225,-0.05291749999999999,-0.216309,-0.028320299999999996,0.95752,-8.625,-2.0625,25.8125,0.000209775,0.207589,3.03516
120,53266899476,0.10321,-0.00427246,-0.9935299999999999,-0.0477295,-0.211914,-0.047851599999999994,0.958008,-7.625,-2.5625,29.5,-0.00139244,0.20696799999999999,3.04545
121,53266909722,0.1026,-0.0032959000000000005,-0.993835,-0.041931199999999995,-0.21093800000000001,-0.059082,0.960938,-4.875,-4.3125,33.1875,-0.00209732,0.20565799999999998,3.05704
122,53266915129,0.10192899999999999,-0.00335693,-0.994202,-0.0357056,-0.207031,-0.057128899999999996,0.9667969999999999,0.6875,-4.4375,36.375,-0.000616736,0.204334,3.0697400000000004
123,53266937202,0.10119600000000001,-0.00408936,-0.9944459999999999,-0.0291138,-0.208984,-0.0512695,0.961426,4.25,-4.875,38.75,0.0022878,0.202896,3.0832900000000003
124,53266954049,0.100342,-0.00531006,-0.99469,-0.022399900000000004,-0.207031,-0.030761700000000003,0.9594729999999999,5.6875,-5.1875,39.6875,0.00619342,0.201211,3.0971900000000003
125,53266975741,0.09942630000000001,-0.00604248,-0.994934,-0.0155029,-0.20459000000000002,-0.0332031,0.9672850000000001,3.1875,-5.9375,40.3125,0.00912171,0.19935,3.11135
126,53267006191,0.0984497,-0.00653076,-0.995117,-0.00848389,-0.19628900000000002,-0.0249023,0.9692379999999999,1.0625,-5.3125,40.625,0.011551700000000002,0.197327,3.12569
127,53267018569,0.0975952,-0.00671387,-0.995239,-0.00128174,-0.194824,-0.00830078,0.9780270000000001,-1.6875,-4.875,41.5625,0.0133687,0.195522,3.14033
128,53267041281,0.0967407,-0.00604248,-0.9953,0.00610352,-0.19433599999999998,-0.00683594,0.96875,-6.625,-4.75,41.9375,0.0134612,0.193708,-3.1280200000000002
129,53267056299,0.09588619999999999,-0.004516600000000001,-0.9953,0.0133667,-0.189941,-0.0249023,0.966309,-10.25,-5.0,41.125,0.0117705,0.191927,-3.1136
130,53267086917,0.0948486,-0.00292969,-0.9953,0.0205078,-0.182617,-0.0410156,0.9746090000000001,-9.5625,-5.1875,40.625,0.00990009,0.189824,-3.09945
131,53267093702,0.0938721,-0.00219727,-0.995239,0.027832,-0.1875,-0.0317383,0.9775389999999999,-5.5625,-5.25,41.75,0.0097709,0.187831,-3.0847599999999997
132,53267125865,0.09307860000000001,-0.00183105,-0.9950559999999999,0.0353394,-0.19531199999999999,-0.019043,0.9838870000000001,-4.3125,-4.9375,43.0,0.010402600000000001,0.18618099999999999,-3.06963
133,53267141518,0.0923462,-0.0012207000000000001,-0.994812,0.0430298,-0.19287100000000001,-0.027343799999999998,0.9785159999999999,-4.875,-4.6875,44.25,0.0105557,0.184677,-3.05416
134,53267153551,0.0914917,-0.000305176,-0.994568,0.0507202,-0.19043,-0.043457,0.9785159999999999,-6.0,-5.0,44.0,0.010056,0.182978,-3.03878
135,53267176091,0.0905151,0.000427246,-0.994202,0.058166499999999996,-0.189453,-0.052246100000000004,0.977051,-4.3125,-5.75,42.9375,0.00984131,0.181017,-3.02382
136,53267191272,0.08959960000000002,0.00134277,-0.993835,0.0653687,-0.183105,-0.07519529999999999,0.9692379999999999,-3.375,-5.5,41.75,0.00919239,0.179228,-3.00941
137,53267215025,0.0883789,0.00201416,-0.993469,0.0723267,-0.16748,-0.0678711,0.9755860000000001,-2.5625,-6.0625,40.125,0.0089215,0.176815,-2.99546
138,53267236205,0.0870972,0.00268555,-0.9931030000000001,0.0790405,-0.16406199999999999,-0.047363300000000004,0.9775389999999999,-3.875,-6.25,38.75,0.00856422,0.174299,-2.98202
139,53267258603,0.0857544,0.00396729,-0.992676,0.0856323,-0.167969,-0.046386699999999996,0.9785159999999999,-7.75,-6.75,37.625,0.00691201,0.171776,-2.9689099999999997
140,53267275023,0.0842896,0.00604248,-0.992188,0.09197999999999999,-0.15625,-0.0595703,0.987793,-11.3125,-6.3125,36.0,0.00356628,0.16918,-2.95642
141,53267305670,0.0828247,0.00811768,-0.991699,0.0983276,-0.152344,-0.0688477,0.9970700000000001,-11.0625,-6.375,36.0,0.000189961,0.166641,-2.94393
142,53267318854,0.0813599,0.00994873,-0.99115,0.104553,-0.151855,-0.07470700000000001,1.0029299999999999,-9.0625,-6.1875,35.4375,-0.00274538,0.164095,-2.9316299999999997
143,53267333601,0.08001710000000001,0.011413600000000001,-0.9906010000000001,0.11065699999999999,-0.144043,-0.062011699999999996,0.9995120000000001,-8.3125,-5.4375,35.0625,-0.00496861,0.16176,-2.91952
144,53267373149,0.07855219999999999,0.0131226,-0.9899899999999999,0.116699,-0.126953,-0.0678711,0.9897459999999999,-9.3125,-5.25,34.25,-0.00774655,0.15926700000000002,-2.90755
145,53267381584,0.0769653,0.015014600000000001,-0.9893799999999999,0.12262,-0.12109400000000001,-0.08496089999999999,1.00488,-9.4375,-5.1875,33.8125,-0.0109699,0.156618,-2.89585
146,53267425471,0.07562260000000001,0.0165405,-0.988708,0.128479,-0.120117,-0.0864258,0.999023,-7.1875,-4.25,33.8125,-0.0134359,0.1544,-2.8842
147,53267433226,0.07470700000000001,0.017761199999999998,-0.9879760000000001,0.13446,-0.134766,-0.0898438,0.997559,-5.25,-3.3125,34.6875,-0.015183000000000002,0.15299000000000001,-2.87224
148,53267435583,0.07397460000000002,0.018859900000000002,-0.9871219999999999,0.14056400000000002,-0.134766,-0.07373049999999999,0.988281,-5.3125,-2.5,35.25,-0.0166299,0.15192999999999998,-2.85996
149,53267470665,0.07336430000000001,0.0203247,-0.986267,0.14666700000000002,-0.143555,-0.0864258,0.9785159999999999,-6.8125,-1.875,35.0,-0.0187864,0.151251,-2.84777
150,53267476061,0.072876,0.0217285,-0.9854129999999999,0.15246600000000002,-0.143555,-0.09472660000000001,0.980957,-5.6875,-1.5,33.75,-0.020839,0.150823,-2.83618
151,53267492544,0.0725708,0.0227051,-0.984497,0.15826400000000002,-0.14209000000000002,-0.100098,0.9780270000000001,-3.0625,-0.875,33.75,-0.0219862,0.150647,-2.82449
152,53267516174,0.0723877,0.023376499999999998,-0.9835209999999999,0.16406199999999999,-0.139648,-0.0883789,0.989258,-2.0,-0.125,34.25,-0.022486700000000002,0.15062899999999999,-2.81272
153,53267536053,0.07220460000000001,0.024291999999999998,-0.982483,0.170166,-0.138672,-0.08154299999999999,0.996094,-3.9375,0.5,35.5,-0.0234271,0.15071700000000002,-2.80038
154,53267560016,0.0720215,0.0257568,-0.981384,0.176147,-0.140625,-0.08789060000000001,0.989258,-6.9375,0.75,34.75,-0.0254745,0.151009,-2.78832
155,53267581123,0.0719604,0.027343799999999998,-0.9802860000000001,0.182068,-0.14013699999999998,-0.09814450000000001,0.9946290000000001,-6.625,1.625,34.25,-0.0277276,0.151621,-2.77644
156,53267605881,0.0723267,0.028320299999999996,-0.979126,0.187866,-0.143066,-0.0834961,0.996094,-4.0625,3.25,34.3125,-0.0286205,0.152869,-2.7646599999999997
157,53267651106,0.07312010000000001,0.0291138,-0.9779049999999999,0.193848,-0.15625,-0.06738279999999999,0.999023,-3.5625,4.8125,34.9375,-0.028943299999999998,0.154915,-2.75248
158,53267673067,0.0741577,0.029907200000000002,-0.976562,0.199829,-0.168457,-0.047363300000000004,0.996582,-5.0,5.75,35.125,-0.029139299999999996,0.157442,-2.74021
159,53267675743,0.0751343,0.0314331,-0.9752200000000001,0.20575,-0.177734,-0.0429688,0.9970700000000001,-9.1875,5.5625,34.1875,-0.030789499999999997,0.160163,-2.72821
160,53267680878,0.0760498,0.033691399999999996,-0.973877,0.211548,-0.199219,-0.050293,0.997559,-13.3125,4.75,33.125,-0.033902499999999995,0.163103,-2.7166099999999997
161,53267718311,0.0765991,0.036193800000000005,-0.9724729999999999,0.217102,-0.200195,-0.0727539,1.00781,-13.75,3.5,32.1875,-0.0376585,0.16545,-2.70543
162,53267720607,0.0769043,0.0380249,-0.971191,0.222473,-0.18896500000000002,-0.0649414,0.9985350000000001,-10.6875,2.0625,30.75,-0.040211199999999996,0.167073,-2.69461
163,53267732526,0.0772095,0.0393677,-0.96991,0.2276,-0.17138699999999998,-0.0429688,0.980957,-9.5625,2.375,29.5625,-0.04182469999999999,0.168489,-2.68416
164,53267761146,0.0773926,0.040405300000000005,-0.968628,0.23266599999999998,-0.17724600000000001,-0.0356445,0.9785159999999999,-8.4375,1.125,29.4375,-0.04289,0.169542,-2.6737599999999997
165,53267776119,0.0775146,0.040893599999999995,-0.9673459999999999,0.237854,-0.199219,-0.016601599999999998,0.9838870000000001,-7.0625,-1.25,29.8125,-0.0428749,0.170242,-2.6630599999999998
166,53267792527,0.0775146,0.0413818,-0.9660639999999999,0.243042,-0.193359,-0.027832,0.992188,-6.375,-1.625,30.1875,-0.042913099999999996,0.170711,-2.65237
167,53267813740,0.0773926,0.041442900000000005,-0.964722,0.24829099999999998,-0.151855,-0.030761700000000003,0.9755860000000001,-3.9375,-0.1875,30.8125,-0.0421551,0.170733,-2.64141
168,53267836088,0.0776367,0.040588400000000004,-0.9633790000000001,0.253601,-0.146484,-0.0185547,0.9750979999999999,1.0625,0.8125,31.4375,-0.0394113,0.171006,-2.63021
169,53267852756,0.078186,0.0394287,-0.9619139999999999,0.259033,-0.16162100000000001,0.015136700000000001,0.9682620000000001,0.9375,1.25,31.9375,-0.0358836,0.171685,-2.6186
170,53267889062,0.07879639999999999,0.0387573,-0.9603879999999999,0.264465,-0.171875,0.028320299999999996,0.977051,-2.625,1.5625,32.0625,-0.0332673,0.172707,-2.60705
171,53267897579,0.0792847,0.0389404,-0.958801,0.27002,-0.174805,0.011230500000000001,0.987793,-6.0625,2.375,32.3125,-0.0323491,0.173942,-2.5954
172,53267912474,0.07971189999999999,0.0393066,-0.9572139999999999,0.275574,-0.174316,-0.0214844,0.9936520000000001,-4.9375,2.625,32.75,-0.0318087,0.17516099999999998,-2.5838200000000002
173,53267933644,0.0803833,0.0391235,-0.955566,0.281067,-0.179199,-0.0126953,0.995605,-2.25,2.625,32.625,-0.0300556,0.176531,-2.5721700000000003
174,53267956312,0.08093260000000001,0.0389404,-0.953857,0.286499,-0.17968800000000001,-0.00292969,0.992676,-2.8125,2.375,32.375,-0.0283631,0.177642,-2.56054
175,53267994490,0.08105470000000001,0.0394287,-0.952209,0.291931,-0.16748,-0.012206999999999999,0.992188,-6.625,1.625,32.0,-0.0282151,0.17832699999999999,-2.54917
176,53268001190,0.0808716,0.0401001,-0.9504389999999999,0.297546,-0.165527,-0.0102539,0.995605,-8.1875,0.625,33.0,-0.0285571,0.178537,-2.53737
177,53268017667,0.0804443,0.0408325,-0.9485469999999999,0.303528,-0.16406199999999999,-0.00732422,0.988281,-9.5,-0.3125,35.1875,-0.0290945,0.178342,-2.52481
178,53268032124,0.0794678,0.041687,-0.946533,0.309998,-0.11377000000000001,-0.0078125,0.9624020000000001,-11.1875,-0.625,37.875,-0.0301228,0.17720999999999998,-2.51132
179,53268053647,0.0802002,0.0425415,-0.9443360000000001,0.316345,-0.234375,0.0107422,0.976562,-9.625,1.125,37.5625,-0.0300921,0.179347,-2.4978700000000003
180,53268077733,0.0814819,0.044006300000000005,-0.941895,0.322998,-0.230469,0.00683594,1.00586,-12.0,5.9375,39.625,-0.030780000000000002,0.18294100000000002,-2.48374
181,53268092514,0.08380130000000001,0.0449219,-0.939148,0.33013899999999996,-0.30761700000000003,0.050293,0.8974610000000001,-9.8125,4.0625,42.25,-0.029570599999999995,0.188173,-2.46833
182,53268113585,0.08325199999999999,0.044616699999999995,-0.936401,0.338074,-0.132324,0.027343799999999998,0.898926,-7.625,-1.8125,47.1875,-0.027755900000000003,0.187173,-2.4513
183,53268136146,0.0828247,0.0449829,-0.933533,0.345947,-0.116211,-0.00732422,0.977051,-8.9375,2.625,47.5625,-0.027156,0.18684800000000001,-2.43439
184,53268151918,0.0823975,0.045105,-0.9306030000000001,0.35388200000000003,-0.142578,-0.00537109,0.973145,-7.375,0.375,47.6875,-0.0260863,0.186359,-2.41731
185,53268198157,0.08184810000000001,0.0458374,-0.9274899999999999,0.361877,-0.14843800000000001,-0.00341797,0.9873049999999999,-11.3125,0.25,48.1875,-0.026245499999999998,0.186074,-2.40003
186,53268200640,0.0808716,0.0471191,-0.924377,0.369873,-0.15087899999999999,-0.015136700000000001,0.991699,-14.375,-0.6875,48.0,-0.0277668,0.18542899999999998,-2.3829599999999997
187,53268243306,0.07989500000000001,0.048217800000000005,-0.921143,0.377869,-0.146484,-0.00976562,0.9848629999999999,-13.625,-1.0625,48.375,-0.0289475,0.184677,-2.3657
188,53268245540,0.07891849999999999,0.0488892,-0.917908,0.385864,-0.140625,-0.00390625,0.985352,-12.0625,-1.25,48.25,-0.0293454,0.183639,-2.34845
189,53268256039,0.078125,0.049316399999999996,-0.914551,0.39379899999999995,-0.137695,-0.00439453,0.97998,-10.375,-1.3125,48.5625,-0.029163400000000003,0.182756,-2.33108
190,53268273339,0.0773926,0.0493774,-0.911133,0.401794,-0.14013699999999998,0.00195312,0.9848629999999999,-8.875,-1.4375,48.8125,-0.028255900000000004,0.181707,-2.31353
191,53268294970,0.0767822,0.049133300000000005,-0.907593,0.409851,-0.12646500000000002,0.0146484,0.9848629999999999,-7.4375,-0.875,49.625,-0.0266847,0.18062899999999998,-2.29568
192,53268341180,0.0762939,0.0488892,-0.9039309999999999,0.417969,-0.138184,0.011718799999999998,0.989258,-6.9375,-0.875,50.5,-0.025013499999999998,0.179764,-2.27763
193,53268341986,0.0758667,0.048706099999999995,-0.9001459999999999,0.426208,-0.137695,0.016113299999999997,0.995605,-7.8125,-0.5625,51.125,-0.0233912,0.179055,-2.2593
194,53268355235,0.0751343,0.0488281,-0.8962399999999999,0.43444799999999995,-0.142578,0.0146484,1.0004899999999999,-9.75,-1.5625,51.25,-0.0225987,0.178042,-2.2408900000000003
195,53268393256,0.0742188,0.0491943,-0.892273,0.44262700000000005,-0.160156,0.00878906,0.9985350000000001,-10.9375,-3.0625,51.3125,-0.0224392,0.17691800000000002,-2.2225900000000003
196,53268397975,0.07226560000000001,0.0493774,-0.8882450000000001,0.45098900000000003,-0.07226560000000001,-0.00585938,0.9970700000000001,-11.9375,-3.0625,52.1875,-0.0228832,0.17379,-2.20398
197,53268460612,0.07189939999999999,0.049255400000000005,-0.884216,0.45892299999999997,-0.22607399999999997,-0.00048828099999999997,0.9394530000000001,-6.0625,-6.875,50.375,-0.021434599999999998,0.173223,-2.186
198,53268463006,0.07220460000000001,0.048217800000000005,-0.880066,0.466919,-0.223633,0.049316399999999996,0.8911129999999999,-3.0625,-6.4375,51.0625,-0.0177074,0.172979,-2.16761
199,53268468381,0.0689087,0.046936,-0.875793,0.47540299999999996,0.039550800000000004,0.0,0.9873049999999999,-8.25,-6.875,53.6875,-0.0169275,0.16608900000000001,-2.14834
200,53268496850,0.0691528,0.0490723,-0.8713989999999999,0.48321499999999995,-0.26123,-0.06835939999999999,1.09814,-11.125,1.875,50.9375,-0.0189621,0.168744,-2.13059
201,53268511108,0.0675659,0.047485400000000004,-0.8670040000000001,0.49145500000000003,-0.013183600000000002,0.07617189999999999,0.847168,-7.25,-4.375,52.5,-0.0161477,0.164576,-2.1116
202,53268526234,0.06951900000000001,0.0507812,-0.8623049999999999,0.49902299999999994,-0.41113299999999997,-0.0776367,1.02441,-11.0,2.8125,50.5625,-0.018466200000000002,0.171413,-2.09395
203,53268542590,0.06530760000000001,0.0499268,-0.857605,0.50769,0.114258,-0.034668,1.11816,-11.9375,-3.3125,55.625,-0.019584999999999998,0.163438,-2.07418
204,53268557598,0.0643921,0.0483398,-0.852844,0.5158689999999999,-0.0214844,0.09277339999999999,0.7851560000000001,-6.875,-2.625,53.5,-0.016225899999999998,0.160394,-2.05485
205,53268572153,0.067688,0.051208500000000004,-0.8479,0.5233760000000001,-0.47363299999999997,-0.00683594,0.810059,-8.5,1.3125,50.6875,-0.0162191,0.169194,-2.0369900000000003
206,53268595118,0.06591799999999999,0.0521851,-0.842773,0.5316770000000001,-0.14209000000000002,-0.0688477,0.967773,-11.4375,-4.75,55.5,-0.018120400000000002,0.167379,-2.0175099999999997
207,53268616209,0.0648193,0.053405799999999996,-0.8375239999999999,0.539856,-0.16308599999999998,-0.03417969999999999,0.980469,-12.875,-1.75,54.8125,-0.019747099999999997,0.16701400000000002,-1.9980799999999999
208,53268632061,0.0636597,0.054382299999999995,-0.832275,0.548035,-0.160645,-0.038574199999999996,0.9780270000000001,-11.875,-2.875,54.9375,-0.0210386,0.166338,-1.97875
209,53268670100,0.062561,0.055297900000000004,-0.826843,0.556213,-0.16503900000000002,-0.0390625,0.9785159999999999,-11.3125,-3.25,55.6875,-0.022156099999999998,0.165729,-1.95912
210,53268675596,0.0614624,0.055969200000000004,-0.8212280000000001,0.5645140000000001,-0.16748,-0.034668,0.9775389999999999,-10.8125,-3.875,56.375,-0.022846,0.16488599999999998,-1.93904
211,53268700116,0.06024169999999999,0.05676269999999999,-0.815491,0.572815,-0.170898,-0.034668,0.976074,-11.5625,-4.375,57.0625,-0.023887000000000002,0.164017,-1.9188599999999998
212,53268753270,0.059082,0.0575562,-0.809692,0.581055,-0.173828,-0.038574199999999996,0.9785159999999999,-11.3125,-4.4375,57.25,-0.0248792,0.16328800000000002,-1.89874
213,53268755672,0.058227499999999995,0.0581055,-0.80365,0.5893550000000001,-0.181152,-0.03613280000000001,0.9897459999999999,-9.5,-4.375,58.0625,-0.025093900000000002,0.162797,-1.87808
214,53268761722,0.0574951,0.0585938,-0.797607,0.597595,-0.18457,-0.033691399999999996,0.9824219999999999,-8.9375,-4.0625,58.125,-0.0250849,0.162461,-1.85765
215,53268798293,0.056701699999999994,0.059082,-0.791443,0.6057130000000001,-0.175293,-0.0424805,0.9814450000000001,-8.5625,-3.625,57.9375,-0.0251625,0.16203399999999998,-1.83713
216,53268799063,0.0559082,0.0595703,-0.7852779999999999,0.613708,-0.17627,-0.0375977,0.984375,-8.625,-3.8125,57.375,-0.0252679,0.161627,-1.8168799999999998
217,53268812559,0.054992700000000005,0.0601196,-0.7791140000000001,0.621582,-0.175781,-0.0288086,0.97998,-10.0625,-3.9375,56.3125,-0.0256502,0.161126,-1.79688
218,53268848699,0.0535889,0.061096199999999996,-0.772949,0.629272,-0.15087899999999999,-0.033691399999999996,1.01221,-13.75,-2.375,55.75,-0.0273592,0.160422,-1.77725
219,53268880800,0.0523071,0.0619507,-0.766541,0.6370239999999999,-0.216797,-0.054199199999999996,0.9282229999999999,-11.0625,-8.1875,56.875,-0.028703199999999998,0.159798,-1.75709
220,53268883109,0.052063,0.0627441,-0.760193,0.6445310000000001,-0.257324,-0.0170898,0.8901370000000001,-9.5,-6.8125,55.5,-0.028656099999999997,0.160728,-1.73737
221,53268901180,0.0494995,0.061889599999999996,-0.7537229999999999,0.652405,-0.030761700000000003,-0.041503899999999996,0.941895,-9.5625,-7.125,57.625,-0.0290649,0.156004,-1.7169400000000001
222,53268941569,0.0480347,0.0639038,-0.747192,0.65979,-0.18701199999999998,-0.118164,1.12988,-12.8125,-0.125,56.25,-0.0325156,0.15675,-1.69744
223,53268946850,0.0488892,0.0635986,-0.74054,0.667175,-0.21093800000000001,0.0644531,0.8085939999999999,-6.3125,-4.0,56.0,-0.029328500000000004,0.157927,-1.6772099999999999
224,53268961199,0.0479126,0.0664673,-0.733704,0.6745,-0.266602,-0.129883,1.15186,-14.0625,0.4375,57.0,-0.0333359,0.160662,-1.6575
225,53268999307,0.0449219,0.0637207,-0.726685,0.682495,0.12255899999999999,0.030273400000000002,0.954102,-9.25,-5.5625,60.0625,-0.0316663,0.152861,-1.6358700000000002
226,53269006051,0.0474243,0.0654907,-0.719666,0.6896359999999999,-0.37304699999999996,0.03613280000000001,0.7929689999999999,-5.9375,-0.4375,56.5,-0.0292257,0.15926099999999999,-1.61579
227,53269036361,0.0494995,0.0704956,-0.712463,0.696411,-0.546387,-0.125,1.04492,-10.4375,1.9375,56.1875,-0.031970799999999994,0.169532,-1.5963100000000001
228,53269068268,0.048400900000000004,0.07299800000000001,-0.705078,0.703674,-0.279785,-0.14843800000000001,1.22559,-12.1875,0.125,58.75,-0.035349599999999995,0.17183099999999998,-1.5758
229,53269070538,0.0456543,0.0725708,-0.697815,0.711121,-0.029785200000000005,-0.09277339999999999,1.2373,-11.3125,-1.25,59.625,-0.03687619999999999,0.167715,-1.555
230,53269084211,0.0423584,0.07098389999999999,-0.690552,0.7185060000000001,0.06591799999999999,-0.054199199999999996,1.22607,-11.8125,-2.1875,58.75,-0.037663699999999994,0.16120299999999999,-1.53411
231,53269111078,0.0388794,0.0703125,-0.683228,0.725769,-0.00292969,-0.0854492,1.26514,-14.3125,-4.1875,58.1875,-0.0401409,0.155818,-1.51356
232,53269129228,0.0365601,0.0733032,-0.675842,0.732483,-0.293457,-0.166016,1.26611,-18.375,-4.125,56.5,-0.0461101,0.15745399999999998,-1.49405
233,53269150041,0.0378418,0.08081050000000001,-0.66864,0.73822,-0.733398,-0.220703,1.0712899999999999,-16.0625,-2.3125,51.375,-0.052990199999999994,0.170745,-1.47651
234,53269181131,0.0409546,0.0863037,-0.6618649999999999,0.7434689999999999,-0.668457,-0.078125,0.7402340000000001,-9.375,-2.5625,47.5,-0.0542842,0.18357,-1.45973
235,53269194377,0.037231400000000005,0.08001710000000001,-0.655945,0.749634,0.374023,0.109375,0.8657229999999999,-7.3125,-6.75,48.25,-0.0498901,0.169623,-1.44193
236,53269202621,0.033081099999999995,0.0786743,-0.649353,0.755676,0.0249023,-0.111328,1.27051,-14.25,-6.4375,50.6875,-0.0528996,0.162583,-1.42404
237,53269226030,0.0358276,0.0845947,-0.642273,0.760925,-0.690918,-0.0585938,0.701172,-12.625,-4.125,48.3125,-0.055015499999999995,0.17566500000000002,-1.40689
238,53269246251,0.0292969,0.07708739999999999,-0.635864,0.7673949999999999,0.543945,0.00048828099999999997,1.2412100000000001,-10.5,-7.0625,52.1875,-0.0537497,0.15620499999999998,-1.3881
239,53269270148,0.03302,0.08398439999999999,-0.628113,0.772827,-0.819824,-0.116699,0.71582,-7.3125,-4.9375,52.6875,-0.0553111,0.17214000000000002,-1.36964
240,53269285532,0.0280762,0.0775146,-0.620911,0.779541,0.380371,-0.0410156,1.3120100000000001,-5.8125,-7.1875,56.5,-0.053159500000000005,0.156354,-1.3493899999999999
241,53269306022,0.0293579,0.0769043,-0.61322,0.785583,-0.19433599999999998,0.04394530000000001,0.729004,-1.875,-5.1875,55.3125,-0.0488156,0.15748499999999999,-1.3294
242,53269338941,0.0324097,0.08300779999999999,-0.604919,0.7912600000000001,-0.753418,-0.216309,0.942383,-0.5625,-3.8125,57.875,-0.049888699999999994,0.17140999999999998,-1.30968
243,53269353967,0.0286865,0.07531739999999999,-0.5974119999999999,0.797852,0.43603500000000006,-0.032226599999999994,1.32812,2.6875,-4.6875,58.1875,-0.044767900000000006,0.15508,-1.28888
244,53269373837,0.0266113,0.06750489999999999,-0.5897220000000001,0.804321,0.44043000000000004,0.11718800000000001,1.01416,1.5,-3.6875,57.4375,-0.0371847,0.140439,-1.2679
245,53269406490,0.028625499999999998,0.06964110000000001,-0.581543,0.809998,-0.355469,0.011230500000000001,0.6674800000000001,-4.125,-2.125,56.3125,-0.035008199999999996,0.146637,-1.2478799999999999
246,53269443293,0.0314941,0.07745360000000001,-0.573059,0.815247,-0.780762,-0.137207,0.6606449999999999,-8.8125,-1.375,56.4375,-0.0379324,0.163106,-1.2284899999999999
247,53269445505,0.0332642,0.08526610000000001,-0.564331,0.820435,-0.773926,-0.20263699999999998,0.815918,-10.125,-1.375,57.625,-0.0423389,0.178399,-1.20879
248,53269488299,0.033813499999999996,0.09136960000000001,-0.555908,0.8255,-0.627441,-0.219727,0.938477,-9.75,-1.5625,56.0625,-0.046611900000000005,0.189579,-1.18974
249,53269489736,0.0339966,0.09680180000000001,-0.5473020000000001,0.830627,-0.585449,-0.22656199999999999,0.9501950000000001,-9.5,-1.5,57.0,-0.0505038,0.19934300000000002,-1.1702700000000001
250,53269495066,0.0352173,0.103027,-0.5390010000000001,0.835205,-0.673828,-0.224609,0.863281,-6.75,-1.25,54.3125,-0.0534541,0.211639,-1.15183
251,53269502016,0.0374146,0.110046,-0.530334,0.839783,-0.7617189999999999,-0.197266,0.695801,-6.125,-1.5,55.6875,-0.05532240000000001,0.22644499999999998,-1.13283
252,53269548856,0.0397339,0.115356,-0.521545,0.844482,-0.6293949999999999,-0.101562,0.5844729999999999,-6.4375,-1.5625,56.1875,-0.054796199999999996,0.238535,-1.11312
253,53269593252,0.0393066,0.11383099999999999,-0.513062,0.8498540000000001,-0.055664099999999994,0.039550800000000004,0.7456050000000001,-9.6875,-1.9375,56.1875,-0.0514424,0.23599699999999998,-1.09237
254,53269595531,0.0346069,0.104553,-0.505127,0.855957,0.578125,0.08496089999999999,1.2304700000000002,-12.9375,-2.75,56.0625,-0.0474985,0.215615,-1.07136
255,53269607496,0.029907200000000002,0.100037,-0.49700900000000003,0.86145,0.20459000000000002,-0.104004,1.36426,-13.625,-3.75,55.875,-0.0489399,0.203483,-1.0516
256,53269609147,0.0299683,0.106628,-0.48822,0.865662,-0.7304689999999999,-0.225098,0.7485350000000001,-11.1875,-6.75,54.875,-0.0534942,0.215535,-1.03282
257,53269622123,0.029480000000000003,0.105957,-0.47961400000000004,0.8705440000000001,-0.168457,-0.0009765619999999999,0.6933590000000001,-9.25,-7.5,55.625,-0.051511400000000006,0.21439699999999998,-1.01264
258,53269658640,0.0253906,0.09533689999999999,-0.47174099999999997,0.87616,0.5893550000000001,0.0517578,1.3720700000000001,-5.5,-7.0,55.25,-0.0463254,0.192197,-0.992223
259,53269667504,0.0247192,0.0961914,-0.463318,0.8806149999999999,-0.344727,-0.178223,1.08643,-1.875,-7.6875,55.0,-0.046482300000000004,0.193527,-0.9731860000000001
260,53269681962,0.026916500000000003,0.101074,-0.45440699999999995,0.884583,-0.6601560000000001,-0.0874023,0.549805,-2.875,-7.75,55.375,-0.0451967,0.204706,-0.9536600000000001
261,53269706643,0.0249023,0.0925903,-0.44622799999999996,0.8897709999999999,0.42529300000000003,0.10497999999999999,1.09229,-4.3125,-6.5,54.75,-0.039016,0.1881,-0.933392
262,53269727768,0.0222778,0.08697510000000001,-0.438538,0.8942260000000001,0.192383,-0.08300779999999999,1.3667,-1.75,-6.1875,51.5,-0.0370211,0.17599700000000001,-0.915172
263,53269742606,0.0239868,0.0935669,-0.43048100000000006,0.8974,-0.760742,-0.173828,0.675293,-1.6875,-5.5,49.625,-0.038200599999999994,0.189722,-0.8981610000000001
264,53269771719,0.023864700000000003,0.09124760000000001,-0.42285200000000006,0.9012450000000001,-0.015625,0.06542970000000001,0.7617189999999999,-5.9375,-4.875,48.0,-0.034756999999999996,0.185721,-0.8805799999999999
265,53269778793,0.019775400000000002,0.08221439999999999,-0.416016,0.9053959999999999,0.536133,0.030273400000000002,1.40527,-9.5,-3.6875,45.125,-0.033056699999999994,0.16608900000000001,-0.8641479999999999
266,53269808852,0.0186768,0.086853,-0.409058,0.908142,-0.538574,-0.202148,0.956543,-8.5625,-4.5625,42.9375,-0.0377111,0.173905,-0.849673
267,53269817550,0.016662599999999996,0.0905151,-0.4021,0.91095,-0.43066400000000005,-0.184082,1.08838,-13.1875,-2.6875,42.375,-0.0431391,0.179268,-0.8352360000000001
268,53269840643,0.015808100000000002,0.09014889999999999,-0.395874,0.913696,-0.166016,-0.0390625,0.976074,-7.375,-3.8125,38.3125,-0.0431847,0.178195,-0.8215129999999999
269,53269861251,0.0146484,0.0891724,-0.389771,0.916443,-0.101074,-0.06738279999999999,0.97998,-5.75,-3.6875,37.875,-0.043345800000000004,0.175765,-0.80805
270,53269893673,0.0134888,0.0882568,-0.383972,0.919006,-0.09179689999999999,-0.0585938,0.988281,-6.0,-2.75,36.375,-0.0436524,0.17344400000000001,-0.7953140000000001
271,53269907653,0.012145999999999999,0.08752439999999999,-0.378235,0.9214479999999999,-0.10351600000000001,-0.06054690000000001,0.98877,-7.5,-2.75,35.25,-0.0444916,0.171323,-0.78279
272,53269914461,0.010376,0.086853,-0.372681,0.9238280000000001,-0.0961914,-0.0795898,1.00684,-8.6875,-2.8125,34.125,-0.0462408,0.169012,-0.7708010000000001
273,53269937545,0.00891113,0.0863037,-0.367188,0.9260860000000001,-0.10693399999999999,-0.08300779999999999,1.00391,-7.0625,-2.625,33.625,-0.047555,0.16717100000000001,-0.758939
274,53269958565,0.00762939,0.0858154,-0.36181599999999997,0.9282229999999999,-0.123047,-0.0834961,1.01074,-6.3125,-2.75,33.25,-0.048619300000000004,0.165588,-0.747344
275,53269999088,0.00665283,0.0853882,-0.35644499999999996,0.930359,-0.123047,-0.07714839999999999,1.01367,-5.125,-2.125,32.6875,-0.049175699999999996,0.164365,-0.735775
276,53270004075,0.00585938,0.0852051,-0.351196,0.932373,-0.128906,-0.0874023,1.01855,-4.0625,-0.6875,32.25,-0.049604699999999995,0.163732,-0.7245060000000001
277,53270033402,0.00549316,0.08514400000000001,-0.346008,0.934326,-0.135742,-0.0854492,1.01904,-2.0625,0.6875,31.875,-0.0493351,0.163635,-0.713364
278,53270044172,0.00537109,0.08526610000000001,-0.341003,0.936157,-0.129395,-0.07226560000000001,1.01367,-1.875,2.3125,30.9375,-0.0487695,0.164043,-0.702633
279,53270057039,0.00500488,0.0858154,-0.33605999999999997,0.937866,-0.125977,-0.06933589999999999,1.01904,-4.3125,4.5,30.0625,-0.0489755,0.165079,-0.692142
280,53270078771,0.0043335,0.08673099999999999,-0.33123800000000003,0.939514,-0.14502,-0.0629883,1.02441,-6.9375,5.0,29.0,-0.050027800000000004,0.16661099999999998,-0.682057
281,53270093759,0.00335693,0.0876465,-0.326477,0.9411010000000001,-0.153809,-0.0610352,1.0283200000000001,-9.0625,3.8125,28.125,-0.051660300000000006,0.167949,-0.672157
282,53270116108,0.0020751999999999997,0.08874510000000001,-0.321838,0.942627,-0.149902,-0.07373049999999999,1.0283200000000001,-9.9375,4.6875,27.4375,-0.05401040000000001,0.169453,-0.662626
283,53270139465,0.0012207000000000001,0.0897217,-0.31738299999999997,0.944031,-0.137695,-0.0932617,1.01709,-6.1875,5.6875,26.6875,-0.055484900000000004,0.171007,-0.653399
284,53270161930,0.00158691,0.09045410000000001,-0.31311,0.9453739999999999,-0.14013699999999998,-0.06738279999999999,1.0127,-0.75,6.3125,26.1875,-0.0544825,0.172879,-0.644358
285,53270184050,0.00244141,0.0908813,-0.308899,0.946716,-0.121582,-0.03417969999999999,1.00146,0.125,7.125,25.5,-0.0523419,0.17447000000000001,-0.635339
286,53270193310,0.00274658,0.09155269999999999,-0.304749,0.947998,-0.107422,-0.039550800000000004,0.9907229999999999,-2.6875,8.375,24.8125,-0.0514117,0.17616700000000002,-0.626582
287,53270213623,0.00286865,0.0923462,-0.300659,0.949219,-0.10839800000000001,-0.0292969,0.987793,-4.1875,8.6875,24.4375,-0.0509094,0.177977,-0.618006
288,53270253158,0.00286865,0.0932007,-0.296448,0.9504389999999999,-0.13281199999999999,-0.0185547,0.9858399999999999,-6.125,7.375,24.8125,-0.050643400000000005,0.179832,-0.6092029999999999
289,53270255716,0.00238037,0.0939941,-0.292236,0.9516600000000001,-0.147949,-0.023925799999999997,0.996582,-8.3125,5.25,24.5625,-0.0512687,0.181284,-0.600484
290,53270274454,0.00164795,0.0946655,-0.288025,0.952881,-0.149902,-0.040039099999999994,0.9858399999999999,-8.0625,4.0,24.5,-0.052282,0.182368,-0.5918
291,53270288110,0.00158691,0.0949707,-0.283875,0.954102,-0.143555,-0.039550800000000004,0.9780270000000001,-4.1875,3.4375,24.8125,-0.051780200000000005,0.183147,-0.58309
292,53270313457,0.00262451,0.09454349999999999,-0.279785,0.955383,-0.137695,-0.00488281,0.9746090000000001,1.1875,1.6875,24.5625,-0.0487227,0.183141,-0.574236
293,53270333680,0.00384521,0.0939331,-0.27563499999999996,0.9566040000000001,-0.135742,0.0219727,0.976562,0.75,0.9375,24.4375,-0.0451944,0.18285099999999999,-0.565172
294,53270357914,0.0043335,0.0933838,-0.271545,0.957825,-0.128418,0.0205078,0.979492,-2.9375,1.0,24.0625,-0.0431422,0.182251,-0.556399
295,53270370501,0.00427246,0.09307860000000001,-0.267395,0.959045,-0.119629,0.00878906,0.979492,-5.625,1.8125,24.1875,-0.0422921,0.181818,-0.547647
296,53270393659,0.00390625,0.0928955,-0.263306,0.960205,-0.11523399999999999,0.00585938,0.976562,-7.25,2.375,23.625,-0.042122,0.181449,-0.539095
297,53270416317,0.00317383,0.0931396,-0.259216,0.961304,-0.12548800000000002,-0.00244141,0.972168,-9.5625,3.125,23.125,-0.042904000000000005,0.18171500000000002,-0.530674
298,53270430628,0.00189209,0.0935059,-0.255249,0.9622799999999999,-0.129883,-0.00195312,0.972656,-12.5625,3.3125,22.3125,-0.0448481,0.181925,-0.5225989999999999
299,53270461795,0.000793457,0.0938721,-0.251343,0.963318,-0.132324,-0.00488281,0.9667969999999999,-11.75,3.0625,22.0625,-0.0464452,0.182264,-0.514676
300,53270468066,0.000183105,0.0942383,-0.24725300000000003,0.964355,-0.146973,0.00048828099999999997,0.9824219999999999,-9.125,2.9375,23.25,-0.047049900000000006,0.182866,-0.506285
301,53270490446,0.0,0.0944824,-0.24285900000000002,0.965454,-0.160645,0.00244141,0.9897459999999999,-7.1875,2.0,25.125,-0.0466921,0.18346400000000002,-0.497172
302,53270513556,-0.000183105,0.09454349999999999,-0.238098,0.966614,-0.171875,0.00732422,0.984375,-7.5,0.375,27.375,-0.0461683,0.183719,-0.48726800000000003
303,53270529470,-0.000671387,0.0944824,-0.23303200000000002,0.967834,-0.183594,-0.00830078,0.9936520000000001,-8.0625,-1.875,28.875,-0.046125900000000004,0.183604,-0.47677600000000003
304,53270550620,-0.00115967,0.09417719999999999,-0.22790500000000002,0.969116,-0.19873,-0.0351562,0.9995120000000001,-5.875,-4.0625,29.75,-0.0459582,0.183029,-0.46616
305,53270573629,-0.0010375999999999999,0.09332280000000001,-0.222656,0.970398,-0.183105,-0.0454102,0.9970700000000001,-0.9375,-5.125,30.5625,-0.044315,0.18165599999999998,-0.455107
306,53270614112,-0.000305176,0.09216310000000001,-0.217468,0.9716799999999999,-0.16748,-0.0429688,0.991699,3.0625,-5.3125,31.1875,-0.041357599999999994,0.17994300000000002,-0.44406599999999996
307,53270634847,0.00115967,0.09094239999999999,-0.21209699999999998,0.9729610000000001,-0.160645,-0.00537109,0.986816,4.375,-4.5,31.8125,-0.036914800000000005,0.178404,-0.43253199999999997
308,53270641967,0.00201416,0.09008789999999998,-0.20648200000000003,0.9742430000000001,-0.16406199999999999,0.00585938,0.980469,0.125,-3.5,32.625,-0.0338149,0.177294,-0.420667
309,53270648005,0.00195312,0.0897827,-0.200623,0.975525,-0.17040999999999998,-0.00390625,0.983398,-4.75,-2.0625,33.8125,-0.0327307,0.176875,-0.408544
310,53270681612,0.00146484,0.0897217,-0.19458,0.9767459999999999,-0.174805,-0.0249023,0.979492,-6.5625,-1.375,34.8125,-0.032567700000000005,0.17676,-0.396142
311,53270693739,0.000915527,0.0898438,-0.188477,0.9779049999999999,-0.184082,-0.038574199999999996,0.976074,-6.0,-1.1875,35.25,-0.0325911,0.176985,-0.383653
312,53270708011,0.000854492,0.0899658,-0.182312,0.979065,-0.189453,-0.027832,0.980957,-4.0,-1.0625,35.5625,-0.0316322,0.177405,-0.370981
313,53270730554,0.000915527,0.09002689999999999,-0.176025,0.980225,-0.199707,-0.026367200000000004,0.976562,-3.0,-1.625,36.625,-0.0303825,0.17775,-0.35804899999999995
314,53270753616,0.00140381,0.09002689999999999,-0.169495,0.981384,-0.199707,-0.019531200000000002,0.973633,-1.5,-1.9375,37.875,-0.028212900000000003,0.178118,-0.344548
315,53270768188,0.00195312,0.0899048,-0.16278099999999998,0.9825440000000001,-0.200195,-0.022949200000000003,0.9667969999999999,-0.3125,-2.5,39.125,-0.0258438,0.178249,-0.330665
316,53270790417,0.00250244,0.0897217,-0.155945,0.983643,-0.20751999999999998,-0.0356445,0.971191,0.75,-3.4375,39.625,-0.0234336,0.178231,-0.31653000000000003
317,53270813605,0.00323486,0.0894775,-0.149231,0.9846799999999999,-0.22021500000000002,-0.03125,0.964355,1.5625,-4.3125,39.25,-0.020663400000000002,0.178119,-0.302626
318,53270828002,0.00408936,0.08935549999999999,-0.142517,0.985718,-0.227539,-0.0126953,0.965332,1.0625,-3.9375,39.25,-0.0176887,0.178267,-0.28874099999999997
319,53270850556,0.004516600000000001,0.0892944,-0.135681,0.9866940000000001,-0.221191,-0.0107422,0.9584959999999999,-1.5,-3.75,39.375,-0.0155658,0.17838299999999999,-0.27469099999999996
320,53270873632,0.00439453,0.0894775,-0.128723,0.98761,-0.227539,-0.016113299999999997,0.95752,-4.25,-3.25,39.8125,-0.0145886,0.178821,-0.260515
321,53270888049,0.00378418,0.0897827,-0.12170399999999999,0.9884639999999999,-0.22314499999999998,-0.0292969,0.9594729999999999,-6.4375,-2.5625,40.25,-0.0146077,0.179375,-0.246317
322,53270910519,0.00323486,0.090271,-0.114624,0.989258,-0.22900399999999999,-0.032714799999999995,0.9536129999999999,-5.625,-1.5,40.4375,-0.0145303,0.18032,-0.232006
323,53270933596,0.00274658,0.0908813,-0.107483,0.9899899999999999,-0.228516,-0.029785200000000005,0.9545899999999999,-5.8125,-0.875,40.875,-0.014334200000000002,0.181529,-0.217575
324,53270948067,0.00189209,0.0914307,-0.100281,0.9907229999999999,-0.22900399999999999,-0.033691399999999996,0.9619139999999999,-7.875,-1.1875,41.0625,-0.0148355,0.182557,-0.2031
325,53270970389,0.000549316,0.092041,-0.0928345,0.991394,-0.224609,-0.030273400000000002,0.9619139999999999,-10.6875,-1.0,42.0625,-0.0162743,0.18363,-0.188226
326,53270994686,-0.00109863,0.0924683,-0.08514400000000001,0.992065,-0.225586,-0.047363300000000004,0.9746090000000001,-11.6875,-1.8125,43.5,-0.018236000000000002,0.184324,-0.172915
327,53271007960,-0.00244141,0.0928345,-0.07714839999999999,0.992676,-0.22705100000000003,-0.0532227,0.97998,-9.8125,-1.875,45.1875,-0.019505099999999997,0.18498599999999998,-0.15693
328,53271046740,-0.00335693,0.0930176,-0.0689087,0.993225,-0.216309,-0.0576172,0.991699,-7.0,-1.8125,47.1875,-0.019828799999999997,0.185372,-0.14036600000000002
329,53271053593,-0.00354004,0.0933838,-0.060302699999999994,0.9937739999999999,-0.207031,-0.040039099999999994,0.987793,-4.25,0.3125,49.1875,-0.0186217,0.186253,-0.122946
330,53271067930,-0.00341797,0.09417719999999999,-0.051330600000000004,0.994202,-0.200684,-0.0317383,0.992676,-3.5,3.3125,51.6875,-0.0167608,0.18801700000000002,-0.104744
331,53271101485,-0.0032959000000000005,0.0951538,-0.041748,0.994568,-0.203125,-0.00146484,0.9931639999999999,-5.5,4.0625,54.3125,-0.014767600000000002,0.190142,-0.0853089
332,53271138093,-0.00402832,0.0955811,-0.0319214,0.994873,-0.20751999999999998,0.00341797,1.02881,-10.875,1.4375,55.5,-0.0143797,0.19108599999999998,-0.06552430000000001
333,53271140498,-0.00616455,0.09625239999999999,-0.0217896,0.9950559999999999,-0.221191,-0.032714799999999995,1.0332,-16.9375,1.5625,56.75,-0.0167733,0.192471,-0.0454042
334,53271150435,-0.00842285,0.09655760000000001,-0.011779799999999998,0.9951780000000001,-0.19433599999999998,-0.0766602,1.03711,-14.75,1.6875,56.6875,-0.0194015,0.193185,-0.025550599999999996
335,53271181758,-0.00964355,0.09625239999999999,-0.00201416,0.9953,-0.170898,-0.0703125,1.02051,-9.0625,-0.3125,55.75,-0.0199551,0.192753,-0.00597654
336,53271187942,-0.0101929,0.0950928,0.00744629,0.995361,-0.137207,-0.0317383,1.02051,-7.375,-3.0625,53.5625,-0.0192243,0.190607,0.013123
337,53271210444,-0.0115356,0.0932617,0.016723599999999998,0.9954219999999999,-0.116699,-0.034668,1.01611,-11.9375,-5.625,52.375,-0.0202004,0.187146,0.0317012
338,53271243210,-0.013183600000000002,0.0910034,0.0257568,0.9954219999999999,-0.08886720000000001,-0.0629883,1.00342,-11.6875,-6.6875,51.0625,-0.0219259,0.18287,0.0497277
339,53271248173,-0.013855000000000001,0.08843989999999999,0.034789999999999995,0.995361,-0.06542970000000001,-0.06591799999999999,0.9946290000000001,-6.25,-7.25,51.8125,-0.0217733,0.17796099999999998,0.06793099999999999
340,53271316002,-0.013610800000000001,0.0859985,0.044006300000000005,0.9951780000000001,-0.07128910000000001,-0.038574199999999996,0.9912110000000001,-2.3125,-7.5625,52.8125,-0.0198194,0.173231,0.08665110000000001
341,53271349762,-0.013183600000000002,0.0838623,0.0534668,0.994934,-0.08300779999999999,-0.0214844,0.9814450000000001,-2.75,-7.0625,54.25,-0.0175166,0.16908900000000002,0.105886
342,53271355919,-0.0131226,0.08184810000000001,0.0629883,0.9945069999999999,-0.07519529999999999,-0.038574199999999996,0.9814450000000001,-3.25,-5.8125,54.5625,-0.0160087,0.165201,0.12516300000000002
343,53271357384,-0.011596700000000001,0.07879639999999999,0.08142089999999999,0.993469,-0.0546875,-0.0546875,0.966309,4.5,-1.0625,52.8125,-0.0103414,0.15912300000000001,0.162715
344,53271393399,-0.0108032,0.0778198,0.09021,0.992798,-0.055175800000000004,-0.046875,0.972656,2.75,0.5625,51.25,-0.00750307,0.157113,0.180633
345,53271395486,-0.010925299999999999,0.0767822,0.09887699999999999,0.992065,-0.0625,-0.032226599999999994,0.9785159999999999,-3.625,0.3125,49.5625,-0.00657219,0.155128,0.198166
346,53271413003,-0.012756299999999998,0.07562260000000001,0.1073,0.9912110000000001,-0.0742188,-0.038574199999999996,0.9829100000000001,-12.8125,-0.375,48.0,-0.00916747,0.153253,0.21493600000000002
347,53271429494,-0.015808100000000002,0.0741577,0.115479,0.9903559999999999,-0.0805664,-0.062011699999999996,0.9785159999999999,-18.4375,-1.8125,45.9375,-0.014348099999999999,0.151111,0.231046
348,53271450633,-0.018981900000000003,0.0723267,0.12341300000000001,0.989502,-0.0805664,-0.0820312,0.9814450000000001,-18.5625,-4.1875,44.75,-0.0199335,0.14836400000000002,0.246666
349,53271472991,-0.0211792,0.0703735,0.13104200000000002,0.9885860000000001,-0.09472660000000001,-0.09375,0.9863280000000001,-12.125,-6.3125,43.6875,-0.0236825,0.145201,0.261819
350,53271488176,-0.0215454,0.0686035,0.138672,0.987671,-0.0952148,-0.0786133,0.9941409999999999,-3.0625,-6.9375,44.0,-0.023774200000000002,0.141967,0.277262
351,53271510421,-0.0206909,0.0670776,0.14624,0.9866940000000001,-0.09960939999999999,-0.055175800000000004,0.9907229999999999,3.0625,-7.3125,44.25,-0.0214202,0.13886800000000002,0.292757
352,53271533012,-0.0194092,0.06591799999999999,0.153809,0.985657,-0.11523399999999999,-0.040039099999999994,0.97998,4.4375,-6.9375,44.0625,-0.0181535,0.13633800000000001,0.30832600000000004
353,53271559181,-0.018249500000000002,0.0652466,0.16125499999999998,0.984558,-0.128418,-0.0253906,0.98877,3.9375,-4.8125,43.625,-0.015029599999999999,0.134771,0.323654
354,53271570488,-0.0176392,0.06488039999999999,0.168518,0.983398,-0.137207,-0.024414099999999998,0.983398,1.0,-3.125,42.1875,-0.012941899999999998,0.133952,0.33855799999999997
355,53271601930,-0.0177002,0.0644531,0.175293,0.9821780000000001,-0.125,-0.0390625,0.9780270000000001,-1.5625,-2.25,39.75,-0.0122822,0.133208,0.35236300000000004
356,53271616265,-0.0183716,0.0640259,0.181763,0.9810180000000001,-0.12548800000000002,-0.0512695,0.9746090000000001,-4.125,-1.625,37.5,-0.0128843,0.132689,0.365501
357,53271630602,-0.0194092,0.0636597,0.187683,0.9799190000000001,-0.129395,-0.052246100000000004,0.9707030000000001,-6.125,-1.25,34.4375,-0.014268600000000001,0.132435,0.37749
358,53271652953,-0.020812999999999998,0.0631714,0.193359,0.9788209999999999,-0.125,-0.0546875,0.9780270000000001,-7.625,-1.125,32.8125,-0.016459,0.1321,0.388938
359,53271668105,-0.022522,0.0626831,0.198914,0.977722,-0.137207,-0.0629883,0.976074,-9.3125,-1.5625,31.9375,-0.019272099999999997,0.131915,0.400118
360,53271690599,-0.024353,0.06213380000000001,0.204346,0.976562,-0.13915999999999998,-0.07519529999999999,0.967773,-9.4375,-1.9375,31.375,-0.022366499999999997,0.131688,0.411026
361,53271723256,-0.0257568,0.0614014,0.20959499999999998,0.9754639999999999,-0.123047,-0.08251950000000001,0.9667969999999999,-6.8125,-2.5,30.5625,-0.0247252,0.130961,0.42163199999999995
362,53271728152,-0.0265503,0.0610352,0.214783,0.9743649999999999,-0.142578,-0.0883789,0.9829100000000001,-2.5625,-2.625,30.625,-0.0257432,0.130718,0.432221
363,53271750655,-0.027099599999999998,0.0606689,0.219971,0.9732059999999999,-0.14746099999999998,-0.08496089999999999,0.9858399999999999,-1.25,-2.8125,30.5,-0.026282299999999998,0.130378,0.442838
364,53271790047,-0.027832,0.0603638,0.225037,0.972046,-0.150391,-0.09033200000000001,0.995117,-2.1875,-2.75,30.0625,-0.027173400000000004,0.130247,0.45319899999999996
365,53271792599,-0.0286865,0.060302699999999994,0.23016399999999998,0.970825,-0.15478499999999998,-0.0854492,0.995117,-2.5625,-1.125,30.125,-0.0281842,0.130663,0.463692
366,53271810696,-0.029541,0.0606689,0.235352,0.969543,-0.146484,-0.06738279999999999,0.979492,-3.625,1.625,30.625,-0.0289814,0.13193,0.474343
367,53271833054,-0.030761700000000003,0.0612793,0.240601,0.96814,-0.141602,-0.0644531,0.9824219999999999,-5.8125,4.0,30.875,-0.030351799999999998,0.133856,0.48507799999999995
368,53271848142,-0.0323486,0.0619507,0.245667,0.9667969999999999,-0.130859,-0.0698242,0.9814450000000001,-7.375,5.625,30.125,-0.0324161,0.136101,0.495432
369,53271870456,-0.0338745,0.06292719999999999,0.25061,0.9653930000000001,-0.128906,-0.07373049999999999,0.991699,-6.3125,7.875,29.375,-0.0342001,0.138924,0.505545
370,53271912185,-0.0350342,0.0645142,0.255554,0.963989,-0.13915999999999998,-0.0786133,1.00488,-3.0625,10.4375,29.4375,-0.0349339,0.142773,0.515768
371,53271917573,-0.0358276,0.0665283,0.260315,0.9625239999999999,-0.136719,-0.052246100000000004,0.996582,-2.375,12.6875,28.6875,-0.034716000000000004,0.147255,0.525664
372,53271955013,-0.0369263,0.0687866,0.26507600000000003,0.9609989999999999,-0.174805,-0.0185547,0.9995120000000001,-6.1875,12.0625,28.25,-0.0349165,0.152373,0.535553
373,53271957570,-0.0388184,0.0702515,0.269897,0.959534,-0.23095700000000002,-0.015136700000000001,1.03955,-12.0,5.8125,27.9375,-0.0370341,0.156408,0.5454829999999999
374,53271969446,-0.041625999999999996,0.0703735,0.274414,0.9580690000000001,-0.203125,-0.0546875,1.04932,-16.75,2.0,26.0,-0.0416715,0.158352,0.554542
375,53272001534,-0.0436401,0.0699463,0.27887,0.9567260000000001,-0.194824,-0.111328,1.06787,-9.5,-1.0625,26.25,-0.0450741,0.15884600000000001,0.563602
376,53272014488,-0.0430298,0.0697632,0.28320300000000004,0.9555049999999999,-0.177734,-0.0805664,1.0507799999999998,3.5,-3.4375,26.5,-0.043270800000000005,0.158351,0.572803
377,53272031038,-0.040588400000000004,0.069397,0.287598,0.9543459999999999,-0.137207,-0.0219727,1.03906,9.375,-4.6875,26.4375,-0.0380273,0.156441,0.582392
378,53272075126,-0.0383301,0.0689087,0.29199200000000003,0.953125,-0.0942383,0.0102539,1.0087899999999999,6.5625,-2.8125,26.5625,-0.0332262,0.154354,0.591936
379,53272077507,-0.0367432,0.0682983,0.296509,0.951843,-0.059082,0.0253906,1.00439,1.625,0.3125,26.8125,-0.029795099999999998,0.152397,0.601655
380,53272090068,-0.035949699999999994,0.0678711,0.301208,0.9504389999999999,-0.055664099999999994,0.0375977,1.0004899999999999,-3.4375,2.5,27.6875,-0.0277699,0.151247,0.611677
381,53272129009,-0.03698730000000001,0.067688,0.30603,0.9488530000000001,-0.08496089999999999,0.022460900000000002,1.00586,-11.75,5.25,28.0,-0.0291,0.151671,0.621731
382,53272136162,-0.0393677,0.067688,0.310974,0.9471440000000001,-0.10888699999999998,-0.00878906,1.00537,-16.875,6.875,28.8125,-0.0328666,0.153305,0.631904
383,53272180777,-0.04187009999999999,0.067749,0.315918,0.9453739999999999,-0.128906,-0.032226599999999994,1.00342,-16.375,6.4375,29.0,-0.0368101,0.155173,0.642075
384,53272182981,-0.043701199999999996,0.0678711,0.320801,0.943665,-0.139648,-0.0332031,1.00537,-12.25,4.8125,29.0625,-0.0394259,0.156775,0.652252
385,53272210145,-0.044616699999999995,0.06811519999999999,0.325867,0.941895,-0.15576199999999998,-0.0292969,1.00195,-7.75,2.5625,30.0625,-0.0401668,0.15805,0.662968
386,53272212479,-0.044494599999999995,0.06817630000000001,0.33105500000000004,0.9400629999999999,-0.150391,-0.0332031,1.00098,-2.1875,0.0625,31.4375,-0.039013,0.158301,0.6740689999999999
387,53272246822,-0.0429077,0.0682983,0.336731,0.93811,-0.142578,-0.011230500000000001,1.00439,4.125,-1.625,34.5625,-0.0349487,0.157692,0.686447
388,53272269966,-0.0411987,0.0686646,0.342896,0.9359129999999999,-0.140625,-0.00488281,0.991699,5.375,-1.0625,37.875,-0.030407999999999998,0.157431,0.6999270000000001
389,53272272434,-0.0397339,0.0690308,0.349304,0.933594,-0.129395,0.00048828099999999997,0.969727,3.4375,0.25,39.375,-0.026292799999999998,0.1573,0.7139479999999999
390,53272315148,-0.0389404,0.06927489999999999,0.355835,0.9311520000000001,-0.121582,0.0,0.963867,-0.0625,1.1875,40.0625,-0.023510800000000002,0.157372,0.728171
391,53272317484,-0.0386963,0.0695801,0.36248800000000003,0.928528,-0.130859,0.00292969,0.9624020000000001,-2.75,2.25,40.625,-0.0216889,0.157924,0.742604
392,53272345750,-0.0392456,0.0700073,0.36938499999999996,0.925781,-0.14746099999999998,0.00537109,0.964844,-7.3125,3.5,42.0,-0.0212166,0.15928900000000001,0.7575609999999999
393,53272350440,-0.0408325,0.0700684,0.376465,0.922852,-0.15087899999999999,-0.00927734,0.960449,-12.6875,3.75,43.0625,-0.022905500000000002,0.160761,0.772783
394,53272389499,-0.0428467,0.0700073,0.383728,0.919739,-0.15332,-0.0332031,0.96875,-13.875,3.8125,44.25,-0.0254251,0.16237200000000002,0.7883760000000001
395,53272421222,-0.0443726,0.0701904,0.391113,0.916565,-0.16650399999999999,-0.040039099999999994,0.9624020000000001,-10.6875,3.125,45.6875,-0.0267991,0.164113,0.804411
396,53272426788,-0.045166000000000005,0.0705566,0.398621,0.913208,-0.17334000000000002,-0.0253906,0.9658200000000001,-7.25,2.3125,46.6875,-0.0266086,0.16563,0.820842
397,53272432944,-0.0457153,0.0710449,0.406433,0.9097290000000001,-0.186523,-0.011718799999999998,0.949707,-6.8125,1.5,48.5625,-0.025789599999999996,0.167202,0.8381049999999999
398,53272450077,-0.0461426,0.0714111,0.414429,0.906067,-0.191895,-0.0214844,0.9589840000000001,-5.6875,0.25,49.9375,-0.0247801,0.16844800000000001,0.8558290000000001
399,53272478623,-0.046264599999999996,0.0715942,0.42260699999999995,0.902283,-0.18896500000000002,-0.030761700000000003,0.957031,-4.0625,-1.3125,51.25,-0.0233097,0.169105,0.874066
400,53272492937,-0.0460815,0.07189939999999999,0.43078599999999995,0.8983760000000001,-0.198242,-0.0249023,0.961426,-2.3125,-1.8125,51.875,-0.021156099999999997,0.169701,0.8924139999999999
401,53272509481,-0.045898400000000006,0.07220460000000001,0.43896499999999994,0.8943479999999999,-0.20605500000000002,-0.011718799999999998,0.961426,-3.3125,-2.0,52.0,-0.0189835,0.170269,0.9108290000000001
402,53272530360,-0.0460815,0.07244869999999999,0.447205,0.890259,-0.20605500000000002,-0.00488281,0.955566,-5.5,-1.8125,52.4375,-0.017506599999999997,0.171045,0.929459
403,53272554464,-0.0465088,0.0726318,0.455383,0.8860469999999999,-0.201172,-0.0009765619999999999,0.9511719999999999,-7.5,-0.875,52.0625,-0.016511500000000002,0.171915,0.9479770000000001
404,53272571144,-0.0474243,0.07269289999999999,0.463501,0.881775,-0.20263699999999998,-0.00195312,0.9516600000000001,-9.75,-0.0625,51.875,-0.0164958,0.173022,0.9663860000000001
405,53272598540,-0.048645,0.0726318,0.471558,0.877441,-0.205078,-0.00927734,0.960449,-11.3125,-0.0625,51.5,-0.0171262,0.174218,0.9847020000000001
406,53272613000,-0.0499268,0.0726318,0.479675,0.872986,-0.20263699999999998,-0.00537109,0.960938,-11.875,0.75,51.9375,-0.0177655,0.175612,1.00327
407,53272630962,-0.051208500000000004,0.0726318,0.487671,0.868408,-0.209473,-0.0141602,0.9667969999999999,-11.5,0.625,52.0625,-0.0183873,0.177017,1.0216
408,53272658806,-0.0525513,0.07244869999999999,0.495728,0.8638309999999999,-0.199707,-0.015136700000000001,0.9672850000000001,-12.125,0.5625,52.0,-0.0192675,0.17821099999999998,1.04021
409,53272672972,-0.053710900000000006,0.07226560000000001,0.5036619999999999,0.859131,-0.190918,-0.015136700000000001,0.967773,-11.4375,1.125,52.0,-0.0198132,0.179234,1.05861
410,53272705759,-0.0547485,0.07226560000000001,0.511658,0.8543700000000001,-0.185547,-0.00439453,0.9785159999999999,-11.0,1.625,52.5625,-0.0199255,0.18048699999999998,1.07734
411,53272710691,-0.05541990000000001,0.07244869999999999,0.519714,0.849426,-0.17968800000000001,0.0107422,0.9907229999999999,-9.6875,2.6875,53.25,-0.0191615,0.18168299999999998,1.09637
412,53272750128,-0.056213400000000004,0.07299800000000001,0.527954,0.8441770000000001,-0.18798800000000002,0.012206999999999999,0.9970700000000001,-9.5625,4.1875,55.1875,-0.0181348,0.183633,1.11598
413,53272767334,-0.057312,0.0736694,0.536377,0.8387450000000001,-0.196777,0.00488281,0.996094,-9.9375,5.5625,56.625,-0.0174128,0.186134,1.1362
414,53272780107,-0.058227499999999995,0.07440189999999999,0.5447390000000001,0.833191,-0.208008,0.019531200000000002,1.01025,-10.0,4.6875,56.625,-0.016259,0.18853399999999998,1.1564299999999998
415,53272793150,-0.059082,0.0742798,0.5531010000000001,0.8276370000000001,-0.220703,0.0258789,1.04199,-12.9375,0.5625,56.0,-0.0159139,0.189441,1.17665
416,53272825158,-0.060974099999999996,0.07360839999999999,0.561218,0.822083,-0.23388699999999998,-0.016113299999999997,1.0542,-16.5625,0.1875,55.0,-0.017957,0.190616,1.19622
417,53272830471,-0.062255899999999996,0.072937,0.5688479999999999,0.816772,-0.208984,-0.0507812,1.04541,-11.125,0.125,53.0,-0.019066,0.191136,1.2147700000000001
418,53272854446,-0.062072800000000004,0.07250980000000001,0.57605,0.811768,-0.17040999999999998,-0.0292969,1.02783,-4.75,-1.1875,49.6875,-0.017557,0.190384,1.23255
419,53272869389,-0.0613403,0.07189939999999999,0.582825,0.807068,-0.140625,0.013183600000000002,1.01807,-5.375,-2.125,46.875,-0.0154774,0.188674,1.24939
420,53272892016,-0.0614624,0.0702515,0.589478,0.8023680000000001,-0.12255899999999999,0.012206999999999999,1.02539,-12.25,-2.75,45.5625,-0.016086600000000003,0.186272,1.26573
421,53272912984,-0.0623169,0.0679932,0.596069,0.797546,-0.126953,-0.0268555,1.02588,-15.6875,-3.5625,45.6875,-0.0186593,0.183779,1.2818100000000001
422,53272929403,-0.0630493,0.06579589999999999,0.602722,0.792664,-0.128906,-0.0576172,1.02686,-12.5,-3.8125,46.3125,-0.020986,0.181302,1.29821
423,53272952159,-0.06311040000000001,0.064209,0.609375,0.787659,-0.128418,-0.055664099999999994,1.0127,-7.9375,-3.6875,47.4375,-0.021509599999999997,0.17902,1.3148600000000001
424,53272981159,-0.0631714,0.0630493,0.616028,0.782593,-0.13281199999999999,-0.061523400000000006,0.992676,-5.875,-2.3125,48.0625,-0.0215345,0.17744400000000002,1.33172
425,53272989426,-0.06292719999999999,0.062439,0.62262,0.777405,-0.101562,-0.05273440000000001,0.984375,-3.125,0.875,48.0625,-0.0204064,0.176353,1.34864
426,53273013579,-0.0625,0.062255899999999996,0.62915,0.772217,-0.0795898,-0.059082,0.961426,-0.1875,3.625,48.1875,-0.018476,0.175696,1.36562
427,53273033036,-0.06213380000000001,0.0623779,0.635498,0.766968,-0.07373049999999999,-0.054199199999999996,0.9501950000000001,0.5,5.1875,47.875,-0.0162781,0.175556,1.38228
428,53273049594,-0.0626221,0.061889599999999996,0.641907,0.761658,-0.08154299999999999,-0.0483398,0.941895,-5.875,5.1875,47.75,-0.016188,0.175573,1.39906
429,53273072105,-0.06427000000000001,0.060302699999999994,0.648193,0.756287,-0.09179689999999999,-0.06689450000000001,0.9467770000000001,-14.125,3.9375,46.5,-0.019335400000000003,0.17543,1.41536
430,53273093061,-0.0665283,0.0575562,0.654358,0.750977,-0.102539,-0.0805664,0.9477540000000001,-20.0,0.625,45.4375,-0.0249793,0.174396,1.43121
431,53273117021,-0.0690308,0.053833000000000006,0.6604,0.745728,-0.12109400000000001,-0.101074,0.95752,-24.0,-3.9375,44.5625,-0.032338099999999995,0.172317,1.44669
432,53273132127,-0.07110599999999999,0.049987800000000006,0.6663819999999999,0.740479,-0.137207,-0.12793,0.9545899999999999,-21.1875,-7.25,44.125,-0.0392562,0.16960899999999998,1.46215
433,53273153033,-0.0717163,0.046936,0.672241,0.735291,-0.13037100000000001,-0.13378900000000002,0.953125,-11.625,-9.5,44.5,-0.0429652,0.166209,1.47759
434,53273169478,-0.0703125,0.0455933,0.6781010000000001,0.730103,-0.128906,-0.09960939999999999,0.9472659999999999,0.9375,-10.5,45.25,-0.0413951,0.16265,1.49349
435,53273191989,-0.06793210000000001,0.0452271,0.684082,0.724792,-0.13378900000000002,-0.0708008,0.9370120000000001,7.4375,-10.4375,46.375,-0.0370724,0.159174,1.5100200000000001
436,53273213144,-0.0653687,0.0454102,0.690063,0.719299,-0.12793,-0.0449219,0.936523,8.625,-9.0625,47.1875,-0.031759300000000004,0.15617799999999998,1.52674
437,53273229383,-0.0634766,0.0454102,0.695923,0.713806,-0.132324,-0.0356445,0.942383,4.8125,-7.1875,46.6875,-0.027747000000000004,0.153783,1.54321
438,53273258032,-0.0626221,0.0449219,0.701599,0.708313,-0.152344,-0.04199219999999999,0.9467770000000001,-0.5625,-6.5625,45.4375,-0.0259806,0.152094,1.55918
439,53273272998,-0.0628052,0.043701199999999996,0.70697,0.7030029999999999,-0.167969,-0.050293,0.9550780000000001,-7.375,-6.25,42.75,-0.026821299999999996,0.150818,1.57427
440,53273289462,-0.0635376,0.0415649,0.711914,0.69812,-0.159668,-0.078125,0.9682620000000001,-11.3125,-7.4375,39.125,-0.029868000000000002,0.149053,1.58809
441,53273313336,-0.0640259,0.0394287,0.716431,0.693481,-0.160156,-0.0942383,0.983398,-9.125,-7.8125,36.8125,-0.0326635,0.146955,1.6007799999999999
442,53273333057,-0.0640259,0.0377808,0.7207640000000001,0.689148,-0.160645,-0.0859375,0.980469,-5.8125,-8.3125,34.875,-0.0341489,0.144874,1.61311
443,53273349549,-0.0637207,0.03625490000000001,0.724915,0.684875,-0.143555,-0.08105470000000001,0.9829100000000001,-4.375,-8.375,33.75,-0.035081,0.14252599999999999,1.62501
444,53273372109,-0.06329349999999999,0.0345459,0.7288819999999999,0.680725,-0.127441,-0.08935549999999999,0.980957,-4.0625,-8.375,32.9375,-0.0361717,0.139754,1.63642
445,53273392985,-0.0627441,0.0328979,0.732788,0.676697,-0.117676,-0.0932617,0.9931639999999999,-3.0625,-8.0,32.3125,-0.0370583,0.136907,1.64772
446,53273409448,-0.062255899999999996,0.031555200000000005,0.736694,0.672546,-0.11377000000000001,-0.08007810000000001,1.00098,-3.1875,-6.1875,32.3125,-0.03759559999999999,0.134578,1.65915
447,53273432027,-0.0623779,0.0303955,0.740662,0.6682130000000001,-0.12255899999999999,-0.06933589999999999,1.00732,-5.3125,-3.875,33.5,-0.0386914,0.133419,1.67087
448,53273453071,-0.06292719999999999,0.0292358,0.744568,0.663879,-0.112305,-0.07714839999999999,1.00635,-7.0625,-1.125,33.375,-0.0403832,0.132916,1.68249
449,53273469617,-0.0636597,0.0285645,0.748413,0.659546,-0.09472660000000001,-0.0717773,0.999023,-5.625,2.6875,33.0,-0.041598199999999995,0.13336199999999998,1.69408
450,53273492682,-0.0647583,0.0285645,0.7521359999999999,0.655151,-0.10351600000000001,-0.060058600000000004,1.00488,-5.0,6.3125,32.875,-0.0422829,0.13525399999999999,1.7054900000000002
451,53273521828,-0.06616210000000002,0.0291748,0.755798,0.6507569999999999,-0.14746099999999998,-0.0258789,1.01611,-6.375,7.125,32.625,-0.0424288,0.138423,1.71688
452,53273528789,-0.067749,0.0291138,0.759521,0.646179,-0.21142600000000003,0.00048828099999999997,1.05859,-12.0625,1.875,32.625,-0.0437794,0.141006,1.7284700000000002
453,53273551146,-0.0703125,0.026794400000000003,0.763062,0.641846,-0.17724600000000001,-0.0634766,1.06055,-21.125,0.125,30.625,-0.0498919,0.14218,1.73927
454,53273581934,-0.0725708,0.0247192,0.766418,0.637695,-0.114258,-0.11328099999999999,1.03955,-15.75,4.0625,29.9375,-0.0552595,0.143255,1.7496
455,53273588858,-0.072937,0.025024400000000002,0.7700199999999999,0.633301,-0.131348,-0.06689450000000001,1.02441,-1.25,3.125,32.5625,-0.0544377,0.144524,1.7610400000000002
456,53273618795,-0.0717163,0.0259399,0.773621,0.628967,-0.09716799999999999,0.03417969999999999,1.00488,0.0,0.5,32.375,-0.050625199999999995,0.144091,1.77259
457,53273633728,-0.0706787,0.0253296,0.7775880000000001,0.624207,-0.057128899999999996,0.0581055,1.02295,-9.3125,-1.625,34.375,-0.0493611,0.142017,1.7851700000000001
458,53273648734,-0.0706177,0.023498500000000002,0.78186,0.618896,-0.0546875,0.011718799999999998,1.0376,-15.125,-1.5,37.875,-0.051187699999999996,0.139969,1.79872
459,53273671113,-0.0702515,0.022216800000000002,0.786377,0.6132810000000001,-0.0454102,-0.028320299999999996,1.03857,-9.3125,-0.5,40.875,-0.0517423,0.138178,1.8132400000000002
460,53273693625,-0.069397,0.022216800000000002,0.7910159999999999,0.6073609999999999,-0.0610352,-0.0292969,1.02881,-1.6875,0.8125,43.0,-0.049637099999999997,0.137205,1.8284599999999998
461,53273708614,-0.06842039999999999,0.023193400000000003,0.795593,0.60144,-0.0883789,-0.00537109,1.01367,2.125,1.3125,42.8125,-0.0458434,0.137199,1.84375
462,53273731347,-0.067688,0.024353,0.799927,0.595703,-0.105957,0.0258789,1.00098,0.0,2.125,41.375,-0.042093599999999995,0.13774,1.85841
463,53273753693,-0.06738279999999999,0.025024400000000002,0.804138,0.5900270000000001,-0.12793,0.027832,1.01855,-3.4375,0.875,40.0625,-0.0396584,0.13834100000000002,1.8727599999999998
464,53273768730,-0.0671997,0.025207499999999997,0.808289,0.5843510000000001,-0.129883,0.0371094,1.02734,-6.75,-0.375,39.375,-0.03816130000000001,0.138536,1.88697
465,53273791187,-0.06738279999999999,0.0249023,0.8125,0.57843,-0.14843800000000001,0.0175781,1.03027,-8.875,-1.0625,40.625,-0.037859,0.13875,1.9015099999999998
466,53273813652,-0.06781010000000001,0.024841299999999997,0.816772,0.572388,-0.166992,-0.00146484,1.00732,-7.1875,-0.9375,42.0,-0.0374209,0.13966199999999998,1.91642
467,53273828774,-0.0680542,0.0251465,0.820984,0.566284,-0.163574,-0.0009765619999999999,0.985352,-4.625,-0.25,41.875,-0.036151300000000004,0.14068699999999998,1.9313599999999997
468,53273851406,-0.0679932,0.025817900000000005,0.825073,0.560242,-0.147949,0.00488281,0.973145,-2.6875,0.5,41.8125,-0.033928,0.1416,1.94608
469,53273873800,-0.0679932,0.0264282,0.829285,0.553955,-0.137207,-0.00195312,0.9667969999999999,-2.1875,1.25,42.875,-0.031825400000000004,0.142534,1.9613900000000002
470,53273888801,-0.06811519999999999,0.026977499999999998,0.8336180000000001,0.547424,-0.13037100000000001,-0.00634766,0.95752,-2.25,2.1875,44.9375,-0.029910200000000005,0.143593,1.97728
471,53273911142,-0.0686646,0.027465800000000002,0.838074,0.540405,-0.14502,-0.015625,0.953125,-3.625,3.0625,47.5,-0.028480500000000002,0.145288,1.99396
472,53273933689,-0.06951900000000001,0.0275269,0.8427120000000001,0.533081,-0.152832,-0.0200195,0.9443360000000001,-6.75,2.5625,49.0,-0.0280303,0.147047,2.0114
473,53273948688,-0.0704346,0.0268555,0.84729,0.525696,-0.160645,-0.03417969999999999,0.955566,-9.375,0.75,49.3125,-0.028865699999999998,0.148134,2.0287599999999997
474,53273971135,-0.07135010000000001,0.026123,0.851807,0.518188,-0.172852,-0.033691399999999996,0.960938,-9.5,-0.5,49.5625,-0.029777099999999997,0.149179,2.04619
475,53273993407,-0.0720215,0.0254517,0.8564450000000001,0.510498,-0.181641,-0.038574199999999996,0.9682620000000001,-8.5,-1.875,50.875,-0.030282,0.149912,2.06422
476,53274010142,-0.0721436,0.0252686,0.861023,0.502686,-0.181152,-0.029785200000000005,0.9619139999999999,-5.1875,-3.125,51.875,-0.029352099999999996,0.150203,2.08241
477,53274031311,-0.0718384,0.0257568,0.865662,0.49468999999999996,-0.186523,-0.024414099999999998,0.9682620000000001,-0.625,-3.8125,52.625,-0.0267877,0.150425,2.1011599999999997
478,53274053632,-0.07128910000000001,0.0266724,0.870239,0.486633,-0.189941,-0.00537109,0.9619139999999999,0.75,-4.0,53.1875,-0.023225599999999996,0.150605,2.1200200000000002
479,53274076189,-0.0708008,0.027710000000000002,0.874756,0.478516,-0.18603499999999998,0.0126953,0.9624020000000001,0.375,-2.9375,53.25,-0.0195027,0.15095899999999998,2.13896
480,53274091173,-0.0706787,0.028503399999999998,0.87915,0.470276,-0.18896500000000002,0.032714799999999995,0.9594729999999999,-3.0625,-1.875,53.1875,-0.0165502,0.15166400000000002,2.15784
481,53274113586,-0.071167,0.0286865,0.883545,0.46191400000000005,-0.19433599999999998,0.0268555,0.961426,-7.5625,-0.625,53.4375,-0.015232599999999999,0.152854,2.17691
482,53274130004,-0.07208250000000001,0.0280762,0.887817,0.45355200000000007,-0.189453,0.00488281,0.9560549999999999,-10.8125,-0.3125,52.875,-0.0157202,0.154069,2.19571
483,53274151344,-0.07281489999999999,0.0274048,0.891907,0.445374,-0.180176,-0.0078125,0.964355,-10.0,-0.5,51.625,-0.016169,0.154918,2.21401
484,53274173679,-0.0734863,0.026916500000000003,0.895813,0.437378,-0.181641,-0.00927734,0.976074,-8.6875,0.0,50.5625,-0.016256,0.155835,2.23185
485,53274190202,-0.07397460000000002,0.0266113,0.899658,0.429382,-0.167969,-0.00830078,0.9790040000000001,-7.4375,0.375,50.4375,-0.0158391,0.156596,2.2497
486,53274211217,-0.07440189999999999,0.026123,0.903442,0.42126499999999995,-0.155273,-0.0078125,0.979492,-7.9375,0.625,50.875,-0.0156781,0.15709,2.26764
487,53274233643,-0.07470700000000001,0.0259399,0.9072879999999999,0.41296400000000005,-0.153809,-0.00195312,0.992676,-6.9375,1.0625,51.6875,-0.014816899999999997,0.157638,2.28612
488,53274250071,-0.07519529999999999,0.026123,0.911011,0.40448,-0.15332,0.00878906,0.989258,-5.8125,3.0,52.625,-0.013402299999999999,0.158807,2.30475
489,53274272773,-0.07617189999999999,0.0266724,0.914795,0.39569099999999996,-0.16503900000000002,0.016113299999999997,1.00488,-5.8125,5.625,54.4375,-0.011632600000000002,0.161168,2.32412
490,53274293855,-0.0775146,0.027343799999999998,0.918579,0.386536,-0.174316,0.032226599999999994,1.01807,-6.9375,7.9375,56.25,-0.00982196,0.16428299999999998,2.3441400000000003
491,53274317643,-0.0784912,0.0274048,0.922424,0.377075,-0.169922,0.0517578,1.06104,-11.25,5.5625,57.375,-0.00875734,0.166236,2.36472
492,53274331255,-0.08032230000000001,0.0257568,0.926208,0.36730999999999997,-0.192383,0.00976562,1.05713,-19.0625,5.0,58.625,-0.011456399999999999,0.168508,2.38545
493,53274362602,-0.08184810000000001,0.0239868,0.929932,0.357666,-0.17138699999999998,-0.0356445,1.0737299999999999,-16.375,4.9375,57.875,-0.014141200000000001,0.170206,2.4060200000000003
494,53274370070,-0.0819702,0.022399900000000004,0.9334110000000001,0.348511,-0.129395,-0.07324220000000001,1.0595700000000001,-9.5,1.0,56.125,-0.0155416,0.16944700000000001,2.4255400000000003
495,53274400117,-0.0813599,0.0219116,0.9366459999999999,0.339966,-0.112793,-0.06591799999999999,1.04932,-2.4375,-0.375,52.625,-0.014476900000000001,0.1681,2.44401
496,53274413730,-0.0801392,0.021667500000000003,0.939758,0.331543,-0.08691410000000001,-0.0449219,1.0400399999999999,-1.3125,-1.3125,51.375,-0.012587600000000001,0.165748,2.46219
497,53274446101,-0.07891849999999999,0.021301300000000002,0.942688,0.323364,-0.08007810000000001,-0.0288086,1.02295,-2.5625,-1.6875,50.0625,-0.0110248,0.16329200000000002,2.47974
498,53274454036,-0.0778198,0.020812999999999998,0.9456180000000001,0.315002,-0.0859375,-0.028320299999999996,1.00537,-3.5,-1.8125,50.625,-0.00979138,0.160982,2.49763
499,53274473677,-0.0769043,0.0203247,0.948486,0.306519,-0.0795898,-0.026367200000000004,0.996582,-4.125,-0.4375,51.3125,-0.00869965,0.15901400000000002,2.5157
500,53274497590,-0.07623289999999999,0.0199585,0.9512940000000001,0.297913,-0.0766602,-0.034668,0.9780270000000001,-3.1875,1.0625,51.875,-0.00754223,0.157583,2.53397
501,53274511159,-0.0758057,0.0196533,0.954041,0.289246,-0.07128910000000001,-0.032714799999999995,0.9746090000000001,-3.125,2.8125,52.3125,-0.00643158,0.156653,2.55234
502,53274541281,-0.0756836,0.018981900000000003,0.9566040000000001,0.280518,-0.07226560000000001,-0.044433600000000004,0.960449,-4.875,3.3125,51.9375,-0.00622043,0.156081,2.5705400000000003
503,53274550125,-0.0755005,0.0176392,0.9591059999999999,0.272034,-0.0639648,-0.0512695,0.961426,-8.125,2.9375,50.5,-0.00732968,0.15504300000000001,2.58822
504,53274573047,-0.0751343,0.015625,0.961548,0.26367199999999996,-0.0639648,-0.062011699999999996,0.969727,-10.875,0.6875,49.5,-0.00968702,0.15333,2.60557
505,53274610571,-0.0747681,0.013549799999999999,0.963867,0.25531,-0.08935549999999999,-0.053710900000000006,0.963867,-11.9375,-1.6875,49.1875,-0.0121979,0.151632,2.6228
506,53274617778,-0.0743408,0.0113525,0.9660639999999999,0.246887,-0.10888699999999998,-0.0507812,0.9584959999999999,-12.9375,-3.25,49.25,-0.0149409,0.149801,2.6400099999999997
507,53274631150,-0.0737915,0.00921631,0.9682620000000001,0.23846399999999998,-0.11035199999999999,-0.06738279999999999,0.94873,-11.125,-4.4375,49.3125,-0.017537900000000002,0.147832,2.65731
508,53274653675,-0.07281489999999999,0.00799561,0.9703370000000001,0.23034699999999997,-0.10497999999999999,-0.07128910000000001,0.9428709999999999,-5.3125,-4.9375,47.9375,-0.018222099999999998,0.145506,2.6741099999999998
509,53274671357,-0.0715332,0.00811768,0.97229,0.222412,-0.101074,-0.047851599999999994,0.9379879999999999,1.1875,-5.0,47.3125,-0.016200799999999998,0.143202,2.69067
510,53274691267,-0.0701294,0.0088501,0.9741209999999999,0.21453899999999998,-0.09667970000000001,-0.03613280000000001,0.9438479999999999,4.0,-4.8125,46.6875,-0.0129778,0.14089200000000002,2.70709
511,53274714916,-0.0688477,0.00958252,0.975891,0.206787,-0.0976562,-0.015136700000000001,0.9467770000000001,2.6875,-4.125,45.9375,-0.00986565,0.138784,2.72327
512,53274730114,-0.06793210000000001,0.00952148,0.9775389999999999,0.199097,-0.104492,-0.0200195,0.945312,-1.5625,-3.75,45.125,-0.0085148,0.137032,2.73913
513,53274753108,-0.0671997,0.00830078,0.979065,0.191833,-0.11181600000000001,-0.04199219999999999,0.9462889999999999,-6.625,-4.5,42.1875,-0.00961618,0.135182,2.7539599999999997
514,53274790130,-0.0664673,0.00640869,0.980408,0.18518099999999998,-0.111328,-0.055664099999999994,0.957031,-9.25,-5.25,38.375,-0.0121585,0.133096,2.7674
515,53274792451,-0.0656738,0.00445557,0.9816280000000001,0.179077,-0.116211,-0.0585938,0.969727,-9.5,-6.0625,35.3125,-0.014902,0.130904,2.77973
516,53274811182,-0.0647583,0.00286865,0.982727,0.173279,-0.115723,-0.0410156,0.9702149999999999,-8.6875,-6.3125,33.4375,-0.016945099999999998,0.128628,2.79143
517,53274833769,-0.0638428,0.0010375999999999999,0.983765,0.167603,-0.115723,-0.038085900000000006,0.976074,-10.3125,-6.6875,32.1875,-0.019515599999999998,0.126296,2.80285
518,53274857560,-0.0627441,-0.00128174,0.984741,0.162231,-0.100586,-0.061523400000000006,0.9829100000000001,-11.125,-7.1875,30.875,-0.0230601,0.123471,2.8136
519,53274871245,-0.0614014,-0.0032959000000000005,0.985657,0.15704300000000002,-0.0932617,-0.0688477,0.992188,-9.0625,-7.875,29.6875,-0.025973200000000002,0.120296,2.82402
520,53274893623,-0.0598755,-0.00457764,0.986511,0.152039,-0.08300779999999999,-0.0717773,1.00342,-4.75,-8.0,29.0625,-0.027429500000000002,0.11701099999999999,2.83413
521,53274909378,-0.0584106,-0.00537109,0.987366,0.147034,-0.0859375,-0.0507812,1.01416,-3.5,-7.1875,28.8125,-0.027968299999999998,0.11401300000000002,2.84432
522,53274932644,-0.0571899,-0.00622559,0.988159,0.14209000000000002,-0.08496089999999999,-0.044433600000000004,1.02441,-4.3125,-5.875,28.5,-0.028738299999999998,0.11148699999999999,2.85435
523,53274953655,-0.05645750000000001,-0.00701904,0.9888309999999999,0.137329,-0.0844727,-0.046386699999999996,1.03027,-4.375,-3.375,27.4375,-0.0295707,0.109947,2.86394
524,53274969473,-0.0561523,-0.00720215,0.989502,0.13281199999999999,-0.08300779999999999,-0.03613280000000001,1.03125,-1.875,0.125,26.25,-0.0293483,0.109431,2.8731299999999997
525,53274992623,-0.05676269999999999,-0.00683594,0.990051,0.128418,-0.09375,-0.0141602,1.01221,-0.6875,4.625,25.1875,-0.028292,0.11086700000000001,2.88204
526,53275013606,-0.0581055,-0.00628662,0.9904790000000001,0.124329,-0.15332,0.0292969,1.0376,-3.5,5.0625,23.25,-0.027080299999999998,0.11378699999999999,2.8902900000000002
527,53275029420,-0.059265099999999994,-0.00775146,0.990906,0.120361,-0.19433599999999998,0.0078125,1.06055,-13.25,0.1875,21.6875,-0.029832799999999996,0.115845,2.8981
528,53275052462,-0.0599976,-0.011413600000000001,0.9912110000000001,0.117126,-0.137695,-0.0576172,1.06104,-20.875,0.75,17.5,-0.03694,0.11653,2.9041900000000003
529,53275073703,-0.060485800000000006,-0.0142822,0.991455,0.114258,-0.0952148,-0.0952148,1.04688,-14.0625,2.25,16.0,-0.0424449,0.116941,2.90961
530,53275089525,-0.060485800000000006,-0.0146484,0.9917600000000001,0.111572,-0.09375,-0.0249023,1.0249,-4.5625,1.5625,15.4375,-0.0428585,0.11697300000000001,2.9150099999999997
531,53275112610,-0.060180700000000004,-0.0145874,0.992065,0.10888699999999998,-0.0834961,0.0429688,1.0166,-6.25,0.375,14.5625,-0.042348699999999996,0.11649300000000001,2.92046
532,53275133649,-0.0596313,-0.0159912,0.992432,0.10607899999999999,-0.047363300000000004,0.0375977,1.01465,-14.625,0.375,15.25,-0.0447029,0.115222,2.92604
533,53275149418,-0.059265099999999994,-0.0178833,0.9927370000000001,0.103027,-0.040039099999999994,0.0126953,1.0200200000000001,-16.0,1.8125,16.375,-0.048050199999999994,0.11423299999999999,2.93202
534,53275173026,-0.0594482,-0.019043,0.993042,0.0995483,-0.0629883,0.00683594,1.01855,-11.75,3.5,19.375,-0.0500052,0.11452799999999999,2.9388900000000002
535,53275201408,-0.0598755,-0.0196533,0.993347,0.09588619999999999,-0.07373049999999999,0.020996099999999997,0.9980469999999999,-10.0625,4.625,20.5625,-0.050888199999999995,0.115442,2.94617
536,53275209446,-0.060485800000000006,-0.0206909,0.9936520000000001,0.09216310000000001,-0.0922852,0.013671899999999999,0.996094,-12.4375,4.125,20.375,-0.052650300000000004,0.116654,2.9535299999999998
537,53275232782,-0.060974099999999996,-0.0217896,0.9938959999999999,0.08862300000000001,-0.09960939999999999,0.00585938,1.0,-11.75,3.0,19.5,-0.0545241,0.11761300000000001,2.96049
538,53275270177,-0.0613403,-0.022338900000000002,0.994202,0.085022,-0.111328,0.00048828099999999997,1.0112299999999999,-8.6875,1.875,20.25,-0.0552644,0.118448,2.96768
539,53275272516,-0.0614624,-0.022216800000000002,0.9945069999999999,0.08117680000000001,-0.116699,0.00683594,1.01221,-5.0625,0.25,21.6875,-0.05458060000000001,0.118923,2.9754400000000003
540,53275292590,-0.0612793,-0.021850599999999998,0.994873,0.0769043,-0.125,0.011718799999999998,1.0127,-4.0,-1.75,23.875,-0.0533035,0.118849,2.98411
541,53275313694,-0.060974099999999996,-0.0214844,0.995239,0.07250980000000001,-0.128418,0.012206999999999999,1.01611,-3.875,-3.0625,24.625,-0.0519947,0.118529,2.99304
542,53275329411,-0.060607900000000006,-0.020812999999999998,0.995605,0.06793210000000001,-0.134277,0.00244141,1.0112299999999999,-1.375,-3.375,25.875,-0.0500471,0.11813,3.00237
543,53275352640,-0.06042480000000001,-0.0197144,0.9959110000000001,0.06329349999999999,-0.133301,-0.00390625,1.00439,1.5625,-2.3125,26.5,-0.047263400000000004,0.11813399999999999,3.01185
544,53275373795,-0.06042480000000001,-0.018249500000000002,0.9962770000000001,0.0587158,-0.12548800000000002,-0.0009765619999999999,0.9863280000000001,3.875,-0.8125,26.5,-0.04378,0.11853399999999999,3.02126
545,53275389448,-0.0606689,-0.016601599999999998,0.9965209999999999,0.054077099999999996,-0.12548800000000002,0.0175781,0.972168,3.9375,0.8125,26.5625,-0.03994419999999999,0.119404,3.03077
546,53275412595,-0.061096199999999996,-0.0152588,0.996765,0.049316399999999996,-0.13281199999999999,0.03417969999999999,0.967773,0.6875,1.125,27.0625,-0.036719800000000004,0.120584,3.0405
547,53275441313,-0.061706500000000004,-0.015014600000000001,0.996948,0.044433600000000004,-0.14013699999999998,0.0288086,0.9589840000000001,-4.75,1.5,27.625,-0.035694199999999995,0.122005,3.05032
548,53275449448,-0.0623779,-0.015563999999999998,0.997131,0.0393677,-0.14941400000000002,-0.00048828099999999997,0.9560549999999999,-7.4375,1.0,28.5,-0.036233800000000004,0.12348599999999998,3.0604299999999998
549,53275472553,-0.0628662,-0.016113299999999997,0.9972530000000001,0.0344849,-0.162109,-0.022460900000000002,0.9550780000000001,-5.875,-0.8125,27.4375,-0.0367672,0.124598,3.07016
550,53275493721,-0.0630493,-0.0159912,0.9974370000000001,0.0297241,-0.16308599999999998,-0.018066400000000003,0.9658200000000001,-2.25,-2.25,26.8125,-0.0359374,0.125151,3.07976
551,53275509623,-0.06329349999999999,-0.0152588,0.997559,0.0250854,-0.17334000000000002,-0.00927734,0.964844,0.625,-2.6875,26.5625,-0.033893,0.125844,3.08917
552,53275532678,-0.0634155,-0.013977100000000001,0.9976809999999999,0.0202637,-0.170898,0.0200195,0.964355,2.375,-2.9375,27.375,-0.0307087,0.126306,3.09903
553,53275553617,-0.0635986,-0.012817400000000001,0.997742,0.015441899999999998,-0.17627,0.034668,0.957031,0.4375,-3.0625,27.4375,-0.027767700000000003,0.126854,3.10888
554,53275577794,-0.0639038,-0.0122681,0.9978030000000001,0.0107422,-0.181152,0.0170898,0.961426,-1.5625,-2.5,26.75,-0.026070099999999995,0.127609,3.1184
555,53275592636,-0.0643921,-0.011718799999999998,0.9978030000000001,0.00616455,-0.170898,0.0078125,0.9594729999999999,-1.0,-1.125,25.75,-0.024384,0.128712,3.1276599999999997
556,53275614993,-0.06488039999999999,-0.0111694,0.9978030000000001,0.00177002,-0.168457,0.00488281,0.9707030000000001,-0.375,-0.1875,25.125,-0.0227125,0.1298,3.13657
557,53275643833,-0.0654907,-0.0108032,0.997742,-0.00250244,-0.160645,0.016113299999999997,0.9667969999999999,-2.125,0.75,24.3125,-0.021415299999999998,0.131115,-3.1379799999999998
558,53275660172,-0.06616210000000002,-0.011047399999999999,0.9976809999999999,-0.00683594,-0.16406199999999999,0.016113299999999997,0.9750979999999999,-5.625,1.0625,24.25,-0.0213276,0.132556,-3.1293
559,53275681235,-0.06671139999999999,-0.011779799999999998,0.9976200000000001,-0.0111694,-0.163574,0.00244141,0.9936520000000001,-7.625,1.0625,24.375,-0.0222135,0.133767,-3.12069
560,53275689568,-0.0674438,-0.012329099999999999,0.997498,-0.015686000000000002,-0.167969,-0.0102539,0.9985350000000001,-5.4375,1.5625,25.375,-0.022690099999999998,0.13535,-3.11168
561,53275736444,-0.06835939999999999,-0.012023899999999999,0.997375,-0.0203247,-0.169434,-0.013183600000000002,1.00586,-0.9375,2.8125,26.375,-0.021409,0.13727899999999998,-3.1023099999999997
562,53275741167,-0.06964110000000001,-0.0108032,0.997192,-0.025024400000000002,-0.163574,0.00390625,1.01074,3.875,5.5,27.25,-0.018239500000000002,0.139888,-3.09269
563,53275766405,-0.0716553,-0.00891113,0.9968870000000001,-0.030029300000000002,-0.17334000000000002,0.022460900000000002,1.01465,6.375,9.125,29.0,-0.013604300000000001,0.143896,-3.0823400000000003
564,53275774180,-0.07391360000000001,-0.00689697,0.996582,-0.0351562,-0.172852,0.0532227,1.01562,5.3125,10.875,29.875,-0.00864482,0.14835,-3.07171
565,53275801339,-0.0761108,-0.00561523,0.996216,-0.0403442,-0.188477,0.0854492,1.02979,-0.8125,9.9375,29.1875,-0.00510614,0.15269100000000002,-3.06102
566,53275809431,-0.0784912,-0.00665283,0.99585,-0.045532199999999995,-0.216309,0.0214844,1.0400399999999999,-9.5,10.25,29.0625,-0.00617929,0.157588,-3.0507
567,53275832069,-0.08001710000000001,-0.00805664,0.995483,-0.050354,-0.20361300000000002,-0.034668,1.06152,-8.0,6.875,27.125,-0.00808657,0.160815,-3.0411599999999996
568,53275871458,-0.0808716,-0.00836182,0.9951780000000001,-0.0547485,-0.198242,-0.0424805,1.0415,-1.125,2.875,25.5625,-0.00789197,0.16259400000000002,-3.03232
569,53275876314,-0.08093260000000001,-0.00817871,0.994934,-0.0583496,-0.17968800000000001,-0.0581055,1.0283200000000001,2.6875,-0.375,21.0625,-0.00692127,0.162717,-3.0249900000000003
570,53275892070,-0.08007810000000001,-0.00738525,0.994873,-0.0612793,-0.152344,-0.04980469999999999,1.03564,6.125,-4.3125,17.5,-0.00494443,0.160934,-3.01896
571,53275930083,-0.0786743,-0.00634766,0.994812,-0.0639648,-0.144043,-0.046875,1.02881,7.0625,-7.0625,16.1875,-0.00259702,0.158001,-3.01337
572,53275932489,-0.0767822,-0.00482178,0.994751,-0.06689450000000001,-0.09960939999999999,-0.011718799999999998,1.01074,7.5625,-7.1875,17.625,0.0006878289999999999,0.15401199999999998,-3.0072400000000004
573,53275961684,-0.0751343,-0.00323486,0.99469,-0.0702515,-0.06933589999999999,0.015625,0.973145,5.875,-4.625,19.625,0.00416834,0.15049300000000002,-3.00026
574,53275975139,-0.0735474,-0.00238037,0.9945069999999999,-0.07403560000000001,-0.0371094,0.00634766,0.948242,2.75,-2.1875,21.75,0.00622298,0.14717,-2.99251
575,53276014002,-0.0720215,-0.00164795,0.994324,-0.078064,-0.00683594,0.0107422,0.945312,1.5,-0.1875,23.125,0.00805077,0.14398,-2.98431
576,53276035670,-0.0706787,-0.00115967,0.99408,-0.08233639999999999,-0.0102539,0.00732422,0.9472659999999999,0.375,1.0625,24.8125,0.0094272,0.14118,-2.9756400000000003
577,53276095669,-0.06927489999999999,-0.00146484,0.9937739999999999,-0.08697510000000001,-0.0258789,-0.0175781,0.9667969999999999,-2.625,-0.375,26.4375,0.00922728,0.138383,-2.96635
578,53276098160,-0.0675659,-0.00183105,0.993469,-0.09179689999999999,-0.04199219999999999,-0.015625,0.97998,-3.125,-3.1875,27.5625,0.0088471,0.134995,-2.9567099999999997
579,53276103369,-0.06591799999999999,-0.00219727,0.9931030000000001,-0.09680180000000001,-0.0585938,-0.0141602,0.9912110000000001,-3.5,-4.0625,28.8125,0.00847123,0.131733,-2.9466900000000003
580,53276116068,-0.06292719999999999,-0.00134277,0.9922489999999999,-0.106628,-0.07617189999999999,-0.011230500000000001,0.9755860000000001,4.375,-5.9375,28.1875,0.0108404,0.125494,-2.92679
581,53276133371,-0.061523400000000006,0.000915527,0.9918819999999999,-0.111267,-0.0717773,0.0234375,0.973633,9.625,-5.875,27.0,0.015624299999999999,0.122148,-2.91722
582,53276155342,-0.0603638,0.00366211,0.991455,-0.11566199999999999,-0.07226560000000001,0.0483398,0.9824219999999999,11.375,-5.1875,25.875,0.0213783,0.11913,-2.90805
583,53276176314,-0.059204099999999996,0.00616455,0.990967,-0.11981199999999999,-0.0727539,0.050293,0.9941409999999999,10.3125,-4.75,24.625,0.0265866,0.116122,-2.8993900000000004
584,53276201191,-0.058227499999999995,0.00811768,0.99054,-0.12371800000000001,-0.0786133,0.038085900000000006,0.9995120000000001,8.25,-4.1875,23.125,0.030692,0.11358900000000001,-2.89132
585,53276215224,-0.0574341,0.00939941,0.9901120000000001,-0.12731900000000002,-0.08251950000000001,0.0317383,0.991699,5.8125,-3.3125,21.0,0.0334521,0.11157,-2.88393
586,53276237640,-0.056579599999999994,0.0103149,0.989807,-0.130249,-0.0874023,0.0234375,0.992188,4.1875,-3.5625,17.25,0.0353778,0.10953800000000001,-2.87797
587,53276252053,-0.0558472,0.011108400000000001,0.989502,-0.132446,-0.08154299999999999,0.0292969,0.9848629999999999,3.75,-3.0625,12.875,0.0370002,0.10778800000000001,-2.87345
588,53276274893,-0.055114699999999996,0.011779799999999998,0.9893190000000001,-0.13409400000000002,-0.0786133,0.0317383,0.985352,3.25,-2.5625,9.75,0.0383138,0.106092,-2.8700900000000003
589,53276296300,-0.0545044,0.012329099999999999,0.9891969999999999,-0.135437,-0.08789060000000001,0.034668,0.9863280000000001,2.3125,-2.5,7.6875,0.039381400000000004,0.104683,-2.86738
590,53276312001,-0.053894000000000004,0.0126343,0.989075,-0.136475,-0.08105470000000001,0.034668,0.979492,1.25,-2.375,6.3125,0.0399264,0.10334600000000001,-2.86528
591,53276343415,-0.053283699999999996,0.012756299999999998,0.989014,-0.137329,-0.08300779999999999,0.0200195,0.977051,1.0625,-2.0625,4.875,0.040086500000000004,0.10207000000000001,-2.8636
592,53276357591,-0.052673300000000006,0.013183600000000002,0.9889530000000001,-0.137878,-0.0834961,0.023925799999999997,0.985352,2.9375,-2.75,3.3125,0.0408191,0.10071799999999999,-2.86248
593,53276372002,-0.052063,0.013732900000000001,0.988892,-0.138184,-0.08935549999999999,0.018066400000000003,0.986816,4.0625,-3.125,2.25,0.0417672,0.0993373,-2.8618099999999997
594,53276395272,-0.0517578,0.014465299999999999,0.988892,-0.13830599999999998,-0.10497999999999999,0.0249023,0.999023,5.0625,-2.875,1.0,0.0431487,0.09852380000000001,-2.86153
595,53276416283,-0.05169680000000001,0.015319799999999998,0.988892,-0.138245,-0.121582,0.0332031,1.0029299999999999,5.625,-2.6875,0.0,0.044823699999999994,0.0981668,-2.86157
596,53276432087,-0.052002,0.0162964,0.988892,-0.137939,-0.129395,0.038085900000000006,1.00684,6.625,-1.25,-1.375,0.046820999999999995,0.098512,-2.86207
597,53276455143,-0.05273440000000001,0.0174561,0.9889530000000001,-0.137268,-0.13525399999999999,0.039550800000000004,1.00195,8.0625,0.875,-3.4375,0.04926830000000001,0.09967630000000001,-2.86328
598,53276476367,-0.053894000000000004,0.0187378,0.989014,-0.13610799999999998,-0.13378900000000002,0.041503899999999996,0.9902340000000001,8.875,3.0625,-6.3125,0.052026800000000005,0.10167799999999999,-2.8654
599,53276491983,-0.055175800000000004,0.0197144,0.989136,-0.134399,-0.11718800000000001,0.0532227,0.9829100000000001,7.1875,5.0625,-9.3125,0.054150699999999996,0.10404100000000001,-2.86864
600,53276515158,-0.05664059999999999,0.020080599999999997,0.9893799999999999,-0.13226300000000002,-0.115723,0.0517578,0.9716799999999999,3.8125,7.125,-12.5,0.0550599,0.10697000000000001,-2.87285
601,53276537690,-0.057983400000000004,0.0198364,0.989624,-0.129639,-0.12402300000000001,0.0625,0.987793,-0.1875,6.1875,-15.4375,0.0546514,0.10984100000000001,-2.87805
602,53276552034,-0.058288599999999996,0.0187988,0.990051,-0.12658699999999998,-0.14013699999999998,0.0576172,1.00098,-5.125,0.0,-17.6875,0.052325800000000006,0.110885,-2.8843400000000003
603,53276583071,-0.057922400000000006,0.016967799999999998,0.99054,-0.12322999999999999,-0.134766,0.0410156,1.0087899999999999,-9.1875,-2.6875,-19.875,0.048204199999999996,0.110793,-2.89138
604,53276597327,-0.0571899,0.015441899999999998,0.991028,-0.11956800000000001,-0.12402300000000001,-0.00488281,1.0195299999999998,-4.5,-4.4375,-21.3125,0.0445663,0.109882,-2.89899
605,53276619989,-0.0562744,0.0158691,0.991516,-0.11566199999999999,-0.134766,0.00732422,1.00195,5.625,-7.875,-22.0,0.0447629,0.108134,-2.90689
606,53276634457,-0.055297900000000004,0.0181274,0.992065,-0.111328,-0.12451199999999998,0.0512695,0.9985350000000001,13.125,-9.1875,-24.1875,0.0485706,0.10588,-2.91551
607,53276657635,-0.054260300000000004,0.0206909,0.992554,-0.10675,-0.11377000000000001,0.07470700000000001,0.992676,13.9375,-8.6875,-25.375,0.0529663,0.103479,-2.92455
608,53276672001,-0.0530396,0.023681599999999997,0.993042,-0.102112,-0.100098,0.10351600000000001,1.00635,14.4375,-9.4375,-26.1875,0.058192999999999995,0.100675,-2.93371
609,53276701221,-0.05169680000000001,0.026489299999999997,0.993469,-0.0977173,-0.0961914,0.13915999999999998,1.00195,11.25,-9.875,-24.5625,0.0630783,0.0976967,-2.9424
610,53276716326,-0.0502319,0.028198200000000003,0.9938959999999999,-0.093689,-0.09179689999999999,0.14746099999999998,1.00244,4.125,-9.6875,-23.25,0.0658068,0.0947085,-2.9504900000000003
611,53276738783,-0.0485229,0.028869599999999995,0.994324,-0.0898438,-0.0776367,0.123047,1.00244,-0.0625,-10.0625,-22.0625,0.0664568,0.0914349,-2.95832
612,53276770785,-0.0463257,0.029541,0.994751,-0.0861206,-0.07128910000000001,0.0976562,1.00342,1.5,-12.375,-21.125,0.0670559,0.08718730000000001,-2.9659400000000002
613,53276776167,-0.04394530000000001,0.0313721,0.995117,-0.08251950000000001,-0.059082,0.10888699999999998,0.995117,7.5,-13.4375,-20.4375,0.0699847,0.08237699999999999,-2.97323
614,53276792138,-0.041503899999999996,0.034668,0.995361,-0.07891849999999999,-0.0390625,0.13281199999999999,0.9912110000000001,14.125,-13.4375,-19.625,0.07586389999999998,0.07722760000000001,-2.9804
615,53276814592,-0.0390625,0.0391235,0.995605,-0.0755615,-0.0219727,0.160645,0.980957,19.5,-13.25,-18.5,0.08412289999999999,0.0719312,-2.98706
616,53276837627,-0.036804199999999995,0.044433600000000004,0.995667,-0.0725708,-0.00634766,0.19433599999999998,0.9702149999999999,22.75,-12.0625,-16.375,0.09417339999999999,0.06689010000000001,-2.9929200000000002
617,53276852395,-0.0349731,0.0496216,0.995667,-0.06988530000000001,-0.0375977,0.21826199999999998,0.9594729999999999,21.375,-11.5,-14.625,0.104094,0.06274869999999999,-2.99816
618,53276890169,-0.0333862,0.05395509999999999,0.995667,-0.0671387,-0.0546875,0.220703,0.965332,16.6875,-11.5625,-14.6875,0.11235899999999999,0.0592729,-3.00358
619,53276897572,-0.0316772,0.0574341,0.9957280000000001,-0.0643311,-0.047363300000000004,0.21093800000000001,0.9624020000000001,12.9375,-11.5625,-15.5,0.11891700000000001,0.0557231,-3.00923
620,53276925951,-0.0299683,0.0606689,0.9957889999999999,-0.0614624,-0.0546875,0.195801,0.97998,13.25,-12.0625,-15.5,0.125006,0.0522502,-3.01503
621,53276936524,-0.028442400000000003,0.0645142,0.9957280000000001,-0.0586548,-0.0629883,0.208984,0.980957,16.3125,-11.9375,-14.75,0.132359,0.049093300000000006,-3.02065
622,53276957458,-0.0271606,0.0689087,0.995667,-0.056213400000000004,-0.0727539,0.219727,0.976074,19.3125,-11.6875,-13.0,0.14089000000000002,0.0463553,-3.02552
623,53276971106,-0.026062000000000002,0.0735474,0.995483,-0.05395509999999999,-0.09033200000000001,0.21533200000000002,0.976074,21.6875,-12.0,-11.5,0.149948,0.0439663,-3.02999
624,53276993763,-0.025024400000000002,0.0784912,0.995239,-0.051574699999999994,-0.0942383,0.21728499999999998,0.9780270000000001,24.125,-12.1875,-11.6875,0.159632,0.0417263,-3.0347
625,53277009397,-0.0240479,0.083374,0.9949950000000001,-0.049255400000000005,-0.0942383,0.212891,0.9814450000000001,25.0,-11.875,-11.5625,0.169221,0.039652099999999996,-3.0393
626,53277032628,-0.023193400000000003,0.08813480000000001,0.99469,-0.046814,-0.09179689999999999,0.203125,0.9838870000000001,25.5,-10.9375,-12.3125,0.178581,0.0378976,-3.04413
627,53277054280,-0.022338900000000002,0.0925903,0.9944459999999999,-0.04406740000000001,-0.07617189999999999,0.20849600000000001,0.972656,23.8125,-10.3125,-14.0625,0.187338,0.03627709999999999,-3.04961
628,53277068197,-0.0214233,0.09655760000000001,0.994202,-0.0411987,-0.06738279999999999,0.23144499999999998,0.969727,20.125,-9.9375,-14.9375,0.195113,0.034649099999999995,-3.05536
629,53277099497,-0.0205078,0.09960939999999999,0.9940190000000001,-0.0383301,-0.0625,0.23730500000000002,0.97998,14.875,-9.5,-15.125,0.201061,0.033140300000000004,-3.0611599999999997
630,53277114071,-0.0195923,0.101746,0.993958,-0.035522500000000005,-0.0576172,0.23974600000000001,0.9692379999999999,9.9375,-9.0,-15.0,0.205193,0.0317246,-3.06688
631,53277129418,-0.0187988,0.103699,0.993835,-0.03302,-0.05664059999999999,0.23974600000000001,0.9619139999999999,8.6875,-8.3125,-13.25,0.208975,0.030522399999999998,-3.07196
632,53277151139,-0.0179443,0.10540799999999999,0.9937739999999999,-0.030761700000000003,-0.055664099999999994,0.212402,0.9599610000000001,9.375,-8.5625,-11.8125,0.212288,0.029184300000000003,-3.07659
633,53277173814,-0.016967799999999998,0.10778800000000001,0.993591,-0.028442400000000003,-0.0483398,0.20751999999999998,0.9594729999999999,13.9375,-8.9375,-12.25,0.21694000000000002,0.0275901,-3.08135
634,53277188141,-0.0157471,0.111267,0.9932860000000001,-0.026062000000000002,-0.0288086,0.228516,0.9658200000000001,19.4375,-9.125,-12.125,0.22379699999999997,0.0254858,-3.08626
635,53277211248,-0.014526400000000002,0.11511199999999999,0.99292,-0.0240479,-0.019043,0.231934,0.9619139999999999,21.625,-8.4375,-10.625,0.23141599999999998,0.023312700000000002,-3.09045
636,53277233680,-0.0133667,0.11926300000000001,0.9924930000000001,-0.0221558,-0.0185547,0.251465,0.9526370000000001,22.4375,-8.3125,-9.6875,0.239669,0.021249599999999997,-3.09439
637,53277248134,-0.0122681,0.123047,0.992065,-0.020446799999999998,-0.016113299999999997,0.26269499999999996,0.9360350000000001,20.125,-7.625,-8.6875,0.24719899999999997,0.0193108,-3.09797
638,53277271128,-0.0115356,0.125916,0.9917600000000001,-0.0185547,-0.03417969999999999,0.25195300000000004,0.945801,15.9375,-7.125,-9.5,0.25291399999999997,0.0182095,-3.10186
639,53277293712,-0.0108032,0.12799100000000002,0.991516,-0.016357399999999998,-0.046386699999999996,0.233398,0.9624020000000001,13.375,-7.75,-11.625,0.257023,0.0172368,-3.10637
640,53277308036,-0.0103149,0.129944,0.991333,-0.013671899999999999,-0.047363300000000004,0.231934,0.9692379999999999,12.875,-7.1875,-14.1875,0.260905,0.0168987,-3.11179
641,53277331215,-0.00994873,0.13189700000000001,0.99115,-0.010925299999999999,-0.046875,0.246094,0.9667969999999999,12.5625,-6.1875,-14.6875,0.264798,0.016840099999999997,-3.1173
642,53277361842,-0.00958252,0.13372799999999999,0.990906,-0.00817871,-0.044433600000000004,0.259766,0.9584959999999999,11.125,-6.4375,-14.625,0.268431,0.0168041,-3.12281
643,53277367996,-0.00921631,0.135132,0.9907229999999999,-0.00543213,-0.046875,0.264648,0.9584959999999999,8.25,-6.3125,-14.5,0.271208,0.016794299999999998,-3.12833
644,53277391081,-0.00878906,0.136169,0.9906010000000001,-0.00268555,-0.0371094,0.26757800000000004,0.955566,5.9375,-5.875,-15.0,0.273252,0.016682299999999997,-3.13388
645,53277413657,-0.00823975,0.136902,0.99054,0.0,-0.0200195,0.259766,0.9516600000000001,5.0,-5.5,-14.5,0.27469099999999996,0.0163243,-3.1393400000000002
646,53277428156,-0.00769043,0.137695,0.990417,0.00238037,-0.023925799999999997,0.262207,0.9501950000000001,5.0625,-5.375,-13.0,0.27625,0.015889700000000003,3.13899
647,53277459417,-0.00714111,0.138245,0.990295,0.00457764,-0.030273400000000002,0.26806599999999997,0.960449,3.75,-6.0625,-11.75,0.27731500000000003,0.015409899999999999,3.1345
648,53277465509,-0.00646973,0.13861099999999998,0.990295,0.00653076,-0.0249023,0.27002,0.9624020000000001,2.5,-6.125,-10.25,0.278045,0.0146249,3.13045
649,53277488074,-0.005737300000000001,0.138977,0.9902340000000001,0.00811768,-0.018066400000000003,0.26269499999999996,0.95752,2.75,-5.75,-8.3125,0.278769,0.013619299999999999,3.12711
650,53277511209,-0.00494385,0.139709,0.9901120000000001,0.00946045,-0.015136700000000001,0.258789,0.9624020000000001,5.4375,-5.5625,-7.0,0.280238,0.0124337,3.1242400000000004
651,53277525567,-0.00421143,0.140991,0.9899290000000001,0.010498,-0.0078125,0.28125,0.9628909999999999,7.5,-4.75,-5.4375,0.282828,0.0112985,3.1219900000000003
652,53277549584,-0.00372314,0.14209000000000002,0.9897459999999999,0.0111694,-0.0205078,0.281738,0.9707030000000001,6.5,-4.0,-3.3125,0.285043,0.0105443,3.12054
653,53277571304,-0.00335693,0.142822,0.989624,0.011718799999999998,-0.0253906,0.272949,0.9628909999999999,5.0,-3.4375,-2.375,0.286521,0.00999177,3.11935
654,53277585712,-0.00317383,0.143494,0.989563,0.012206999999999999,-0.024414099999999998,0.273926,0.9624020000000001,4.5,-2.6875,-2.5625,0.287889,0.00978483,3.1183400000000003
655,53277608023,-0.00305176,0.143982,0.989441,0.012756299999999998,-0.0253906,0.27880900000000003,0.9702149999999999,3.5625,-1.9375,-2.625,0.28886,0.00971259,3.11722
656,53277631145,-0.00317383,0.144348,0.9893799999999999,0.013183600000000002,-0.028320299999999996,0.27831999999999996,0.965332,2.625,-1.0625,-2.1875,0.289593,0.0100865,3.1164099999999997
657,53277645617,-0.00335693,0.144653,0.9893799999999999,0.0134277,-0.030273400000000002,0.286621,0.956543,1.4375,-0.25,-1.1875,0.290217,0.0105275,3.11599
658,53277668190,-0.00372314,0.144531,0.9893799999999999,0.013671899999999999,-0.03417969999999999,0.277344,0.952148,-0.125,0.125,-1.1875,0.289955,0.0113195,3.1156099999999998
659,53277691308,-0.00390625,0.144226,0.9893799999999999,0.013977100000000001,-0.0219727,0.26855500000000004,0.9545899999999999,-0.75,0.25,-1.8125,0.28931999999999997,0.0117615,3.11505
660,53277705548,-0.00421143,0.14416500000000002,0.9893799999999999,0.0142822,-0.0332031,0.26416,0.960938,1.0,-0.0625,-1.375,0.28918499999999997,0.012451700000000001,3.11453
661,53277730109,-0.00439453,0.144287,0.9893799999999999,0.014526400000000002,-0.0332031,0.269043,0.964355,2.0,-0.4375,-1.3125,0.289431,0.012888,3.1141099999999997
662,53277750664,-0.00445557,0.144531,0.9893190000000001,0.014892600000000002,-0.030761700000000003,0.26806599999999997,0.961426,2.4375,-1.3125,-1.5625,0.289912,0.013121200000000001,3.1134
663,53277765559,-0.0043335,0.144653,0.9893190000000001,0.0152588,-0.027832,0.264648,0.963867,2.375,-2.125,-1.6875,0.290164,0.0129893,3.1126400000000003
664,53277790955,-0.00421143,0.144897,0.989258,0.015808100000000002,-0.04394530000000001,0.265625,0.964844,2.8125,-3.0625,-2.3125,0.290649,0.012913800000000001,3.11152
665,53277810497,-0.00396729,0.145325,0.9891969999999999,0.0164185,-0.039550800000000004,0.27002,0.9594729999999999,3.5625,-3.75,-2.9375,0.291514,0.0126212,3.11025
666,53277825689,-0.00372314,0.14562999999999998,0.989136,0.0171509,-0.0375977,0.273438,0.9624020000000001,3.125,-3.5625,-3.375,0.292128,0.0123611,3.10873
667,53277848135,-0.003479,0.146118,0.989075,0.0178223,-0.036621100000000004,0.280273,0.9560549999999999,3.4375,-3.5625,-3.1875,0.293121,0.0120906,3.10734
668,53277870593,-0.00335693,0.146423,0.989014,0.018615700000000002,-0.0371094,0.282227,0.958008,2.25,-3.375,-3.8125,0.293732,0.012092,3.10574
669,53277885651,-0.00311279,0.146484,0.9889530000000001,0.019531200000000002,-0.0356445,0.275391,0.9594729999999999,1.125,-3.6875,-4.4375,0.29384299999999997,0.0118791,3.10385
670,53277908156,-0.00280762,0.146301,0.989014,0.0205078,-0.032226599999999994,0.277344,0.9790040000000001,0.5,-4.0,-4.9375,0.293487,0.0115544,3.10183
671,53277930656,-0.00250244,0.146057,0.989014,0.0214233,-0.028320299999999996,0.26757800000000004,0.96875,0.25,-3.75,-4.4375,0.292991,0.011208200000000001,3.09993
672,53277945619,-0.0020751999999999997,0.146118,0.9889530000000001,0.0221558,-0.026367200000000004,0.275391,0.9707030000000001,1.3125,-3.875,-3.75,0.293113,0.0105795,3.09835
673,53277967993,-0.00170898,0.14624,0.9889530000000001,0.0228271,-0.0141602,0.287109,0.964844,1.0,-3.25,-3.5,0.293377,0.0100569,3.09692
674,53277990457,-0.00140381,0.146057,0.9889530000000001,0.023315400000000003,-0.015136700000000001,0.284668,0.958008,-0.625,-2.3125,-2.5,0.293011,0.00958752,3.09586
675,53278008462,-0.00128174,0.14562999999999998,0.989014,0.0238037,-0.019531200000000002,0.271484,0.9536129999999999,-1.6875,-2.0625,-2.1875,0.29215100000000005,0.00946852,3.0948599999999997
676,53278028203,-0.00115967,0.145569,0.989014,0.0241699,-0.0214844,0.271484,0.9560549999999999,0.6875,-1.8125,-2.0,0.29203,0.00933077,3.09409
677,53278051971,-0.00109863,0.14562999999999998,0.989014,0.024536099999999998,-0.019531200000000002,0.274414,0.9672850000000001,1.6875,-1.3125,-1.6875,0.292158,0.00931965,3.09335
678,53278073834,-0.00115967,0.145874,0.9889530000000001,0.024841299999999997,-0.0268555,0.27831999999999996,0.961426,2.1875,-1.125,-1.5625,0.29264,0.00954126,3.0927700000000002
679,53278087999,-0.0012207000000000001,0.146057,0.988892,0.0251465,-0.022460900000000002,0.279785,0.94873,1.25,-0.6875,-1.3125,0.292997,0.00976009,3.09218
680,53278110405,-0.00140381,0.145874,0.9889530000000001,0.0254517,-0.0253906,0.277344,0.9472659999999999,-0.5625,-0.125,-1.5,0.292628,0.0102022,3.09163
681,53278125639,-0.00164795,0.145508,0.9889530000000001,0.0257568,-0.024414099999999998,0.271484,0.9443360000000001,-1.25,-0.1875,-1.6875,0.29186,0.010755299999999999,3.0910900000000003
682,53278148045,-0.00177002,0.144958,0.989075,0.026123,-0.0253906,0.266602,0.945312,-2.375,-0.5625,-2.0625,0.290754,0.011075100000000001,3.0904
683,53278170465,-0.00183105,0.144287,0.989136,0.0266724,-0.020996099999999997,0.26757800000000004,0.945801,-2.875,-0.9375,-2.8125,0.289383,0.0113195,3.0893200000000003
684,53278185638,-0.00164795,0.143738,0.9891969999999999,0.027099599999999998,-0.0141602,0.273438,0.945801,-2.6875,-1.625,-2.4375,0.288275,0.011051,3.0884099999999997
685,53278208123,-0.00152588,0.14325,0.989258,0.0275269,-0.022460900000000002,0.271973,0.9536129999999999,-2.0625,-2.0,-1.875,0.28729099999999996,0.0109056,3.08753
686,53278230678,-0.0012207000000000001,0.142822,0.9893190000000001,0.027832,-0.0205078,0.264648,0.958008,-1.5,-2.625,-1.25,0.286443,0.0103656,3.08683
687,53278245440,-0.000854492,0.142517,0.9893799999999999,0.0280762,-0.0185547,0.269043,0.961426,-0.75,-2.9375,-1.125,0.28585,0.00969366,3.08625
688,53278268209,-0.00048828099999999997,0.142395,0.9893799999999999,0.028320299999999996,-0.0214844,0.274902,0.963867,-0.1875,-3.3125,-0.6875,0.285617,0.00903166,3.08566
689,53278290631,-0.00012207,0.142151,0.9893799999999999,0.0285645,-0.024414099999999998,0.28320300000000004,0.965332,-1.4375,-3.5,-0.9375,0.285134,0.00836257,3.08506
690,53278305442,0.00012207,0.141785,0.989441,0.0288086,-0.030273400000000002,0.285645,0.980469,-2.0,-3.1875,-0.8125,0.284411,0.00792775,3.08451
691,53278328176,0.000305176,0.141479,0.989502,0.0289307,-0.022949200000000003,0.28369099999999997,0.9912110000000001,-1.4375,-2.1875,-0.3125,0.28380900000000003,0.00758232,3.08422
692,53278352027,0.000305176,0.141235,0.989502,0.028991700000000002,-0.029785200000000005,0.27880900000000003,0.979492,-0.9375,-1.5625,0.0625,0.28330700000000003,0.00758543,3.08409
693,53278373798,0.000183105,0.141174,0.989502,0.0292358,-0.039550800000000004,0.28418000000000004,0.980469,-0.375,-1.6875,-0.75,0.283174,0.00789241,3.08364
694,53278388002,6.10352e-05,0.141052,0.989502,0.029663099999999998,-0.033691399999999996,0.287109,0.989258,-0.9375,-1.5,-2.125,0.282916,0.00824739,3.08282
695,53278410605,-6.10352e-05,0.140625,0.989563,0.030151400000000002,-0.022949200000000003,0.284668,0.991699,-2.375,-0.9375,-2.75,0.282047,0.00860097,3.08189
696,53278425629,-0.00036621099999999997,0.140076,0.989624,0.030639599999999996,-0.029785200000000005,0.280273,0.9931639999999999,-2.6875,-0.125,-2.375,0.280915,0.0093087,3.0810000000000004
697,53278456344,-0.000854492,0.139526,0.989685,0.031066900000000005,-0.040039099999999994,0.276855,0.9790040000000001,-2.875,0.5,-2.25,0.27977199999999997,0.010360799999999998,3.08029
698,53278470545,-0.00152588,0.138855,0.9897459999999999,0.0314941,-0.046875,0.26318400000000003,0.969727,-3.25,0.75,-2.5625,0.278368,0.011767,3.0796099999999997
699,53278485621,-0.00213623,0.138062,0.9898680000000001,0.032226599999999994,-0.0483398,0.23779299999999998,0.9628909999999999,-2.375,0.3125,-3.875,0.27673000000000003,0.013128,3.07833
700,53278508146,-0.00256348,0.137512,0.9899290000000001,0.0332031,-0.0390625,0.236816,0.9672850000000001,-0.625,0.0,-5.25,0.27558699999999997,0.0142075,3.0765
701,53278530565,-0.00292969,0.137024,0.9899290000000001,0.03405759999999999,-0.033691399999999996,0.245117,0.964355,-1.125,0.0,-5.0,0.274557,0.0151344,3.0749
702,53278546980,-0.00335693,0.136169,0.990051,0.034851099999999996,-0.03613280000000001,0.24853499999999998,0.956543,-3.8125,0.25,-4.3125,0.272802,0.0161391,3.07343
703,53278568022,-0.00360107,0.134888,0.990173,0.0354004,-0.0258789,0.243652,0.954102,-6.25,0.0625,-3.3125,0.270183,0.016682299999999997,3.07238
704,53278607613,-0.00390625,0.13336199999999998,0.9903559999999999,0.0358276,-0.022460900000000002,0.23095700000000002,0.9516600000000001,-6.9375,0.5625,-2.375,0.26707600000000004,0.017294099999999996,3.07159
705,53278609996,-0.00415039,0.132141,0.99054,0.0360107,-0.028320299999999996,0.22900399999999999,0.945312,-5.25,0.4375,-1.1875,0.264602,0.0177402,3.07127
706,53278627985,-0.00439453,0.131287,0.990662,0.0360718,-0.027343799999999998,0.23144499999999998,0.9511719999999999,-3.4375,0.5625,-0.125,0.262864,0.018179499999999998,3.0712
707,53278653558,-0.00445557,0.130737,0.9907229999999999,0.0357666,-0.024414099999999998,0.228027,0.9560549999999999,-1.0625,0.125,1.8125,0.261752,0.0181815,3.0718099999999997
708,53278673797,-0.00457764,0.130737,0.9907229999999999,0.0350342,-0.030761700000000003,0.231934,0.9501950000000001,1.25,0.25,4.0,0.261751,0.018231900000000002,3.07329
709,53278697639,-0.00469971,0.13104200000000002,0.9907229999999999,0.03417969999999999,-0.03613280000000001,0.23730500000000002,0.944824,2.625,0.125,5.3125,0.26237699999999997,0.0182712,3.07502
710,53278710623,-0.00482178,0.131226,0.9907229999999999,0.0332031,-0.0317383,0.238281,0.9550780000000001,2.375,0.3125,5.75,0.262754,0.0182693,3.077
