,timestamp,orientation_x,orientation_y,orientation_z,orientation_w,AccX,AccY,AccZ,GyroX,GyroY,GyroZ,roll,pitch,yaw
0,49269767647,-0.07360839999999999,-0.128174,-0.630127,0.762329,0.277832,0.0200195,0.9658200000000001,-0.8125,-4.375,0.4375,0.051511,-0.292333,-1.3891200000000001
1,49269790297,-0.07397460000000002,-0.12854000000000002,-0.630127,0.762207,0.274414,0.0371094,0.964844,0.5625,-4.25,-0.5625,0.0514448,-0.293365,-1.38925
2,49269805293,-0.0742798,-0.128967,-0.630249,0.7620239999999999,0.272949,0.047363300000000004,0.9619139999999999,0.125,-4.3125,-1.1875,0.0515991,-0.294417,-1.38976
3,49269828966,-0.0750122,-0.129395,-0.630432,0.7617189999999999,0.285645,0.04980469999999999,0.9536129999999999,-2.125,-4.875,-1.375,0.05111690000000001,-0.296009,-1.3904
4,49269850206,-0.07592769999999999,-0.129761,-0.6306149999999999,0.761414,0.29199200000000003,0.046386699999999996,0.949707,-2.8125,-5.0,-1.4375,0.050265199999999996,-0.297745,-1.39099
5,49269865395,-0.0765991,-0.130188,-0.630737,0.761169,0.29199200000000003,0.038085900000000006,0.9589840000000001,-1.125,-4.8125,-1.375,0.0498546,-0.299265,-1.39147
6,49269889054,-0.0768433,-0.130981,-0.630737,0.7609859999999999,0.290039,0.0332031,0.949707,2.875,-4.875,-1.3125,0.0505675,-0.300802,-1.39182
7,49269919541,-0.0767822,-0.13208,-0.630798,0.760742,0.291016,0.04394530000000001,0.949219,4.3125,-5.25,-1.4375,0.0522004,-0.30241399999999996,-1.3925
8,49269928764,-0.0768433,-0.13311800000000001,-0.630981,0.760437,0.290527,0.052246100000000004,0.9462889999999999,2.9375,-5.125,-2.5,0.0536045,-0.30409400000000003,-1.3935
9,49269949553,-0.0772705,-0.13378900000000002,-0.631042,0.760254,0.289062,0.0488281,0.949219,0.75,-5.25,-0.8125,0.0538856,-0.305688,-1.39396
10,49269971011,-0.0772705,-0.13458299999999998,-0.630981,0.7601319999999999,0.28369099999999997,0.046386699999999996,0.94873,3.1875,-4.6875,-0.9375,0.0549611,-0.306909,-1.3941700000000001
11,49269985844,-0.0769653,-0.135681,-0.630981,0.759949,0.292969,0.050293,0.9462889999999999,5.4375,-4.5,-1.3125,0.056958400000000006,-0.308205,-1.39473
12,49270009432,-0.0764771,-0.13677999999999998,-0.630981,0.759827,0.291016,0.059082,0.944824,6.0,-4.0625,-1.1875,0.059235800000000005,-0.309276,-1.39531
13,49270037494,-0.0756836,-0.137939,-0.63092,0.759705,0.284668,0.0629883,0.949219,7.1875,-3.625,-1.0,0.0620601,-0.31003000000000003,-1.3957700000000002
14,49270049965,-0.0747681,-0.13915999999999998,-0.63092,0.759644,0.290039,0.0688477,0.942383,7.875,-2.9375,-1.3125,0.0651687,-0.310747,-1.39647
15,49270068109,-0.07403560000000001,-0.140198,-0.6308590000000001,0.759521,0.288574,0.07714839999999999,0.9433590000000001,6.0625,-3.0,-1.0625,0.0677334,-0.311386,-1.39688
16,49270090747,-0.07373049999999999,-0.140808,-0.63092,0.7593989999999999,0.29394499999999996,0.07617189999999999,0.9379879999999999,2.375,-2.4375,-0.9375,0.0690816,-0.311929,-1.3973799999999998
17,49270105845,-0.07373049999999999,-0.141052,-0.631042,0.7592770000000001,0.287598,0.06542970000000001,0.950684,0.8125,-2.1875,-1.0625,0.0694695,-0.312302,-1.39784
18,49270128333,-0.0735474,-0.14135699999999998,-0.631165,0.7590939999999999,0.29248,0.060058600000000004,0.9438479999999999,2.0625,-1.875,-1.1875,0.0702378,-0.31251,-1.3983299999999999
19,49270150752,-0.07299800000000001,-0.142029,-0.631165,0.759033,0.29541,0.0634766,0.9404299999999999,5.0625,-1.6875,-1.0625,0.0720262,-0.312834,-1.39872
20,49270165756,-0.07226560000000001,-0.142761,-0.631165,0.758972,0.29834,0.0664062,0.9526370000000001,6.0,-1.375,-1.1875,0.07418580000000001,-0.313013,-1.39916
21,49270188379,-0.0715942,-0.143433,-0.6312260000000001,0.75885,0.295898,0.07226560000000001,0.94873,5.1875,-1.25,-1.5625,0.0761941,-0.313166,-1.39972
22,49270210636,-0.071228,-0.143982,-0.631287,0.758728,0.30175799999999997,0.0644531,0.942383,4.0625,-1.5625,-1.625,0.0775571,-0.31352800000000003,-1.4002
23,49270225196,-0.0709229,-0.14440899999999998,-0.63147,0.758545,0.296875,0.0634766,0.945312,3.375,-1.5625,-1.75,0.07870360000000001,-0.313777,-1.40095
24,49270248322,-0.0704956,-0.14502,-0.631592,0.758362,0.302734,0.0717773,0.936523,4.125,-1.5,-2.125,0.0802744,-0.314145,-1.40163
25,49270270667,-0.0700684,-0.145508,-0.631775,0.7581180000000001,0.295898,0.0717773,0.941895,3.75,-1.375,-2.1875,0.0817056,-0.314309,-1.40241
26,49270285052,-0.06964110000000001,-0.14599600000000001,-0.63208,0.7578739999999999,0.297852,0.0688477,0.957031,3.8125,-1.75,-2.9375,0.0831743,-0.31448899999999996,-1.40354
27,49270308289,-0.0691528,-0.14666700000000002,-0.632202,0.757629,0.30175799999999997,0.07519529999999999,0.955566,4.625,-1.875,-2.25,0.084935,-0.314853,-1.40426
28,49270330694,-0.06872560000000001,-0.1474,-0.6323850000000001,0.7573850000000001,0.304688,0.08935549999999999,0.941406,3.9375,-2.1875,-2.0,0.0867038,-0.31540300000000004,-1.4051799999999999
29,49270345075,-0.06842039999999999,-0.14801,-0.632568,0.757141,0.302734,0.09033200000000001,0.9394530000000001,2.375,-2.0,-2.0,0.0881144,-0.315919,-1.40603
30,49270368403,-0.06835939999999999,-0.148376,-0.6328739999999999,0.756836,0.30127,0.0864258,0.9355469999999999,1.1875,-1.9375,-2.75,0.0888541,-0.31637,-1.40707
31,49270390892,-0.0682983,-0.14868199999999998,-0.6331180000000001,0.756592,0.302246,0.0786133,0.9467770000000001,1.1875,-1.9375,-2.125,0.0894823,-0.316734,-1.4079
32,49270405198,-0.0682983,-0.14898699999999998,-0.633301,0.7563479999999999,0.303711,0.0795898,0.9501950000000001,1.1875,-2.0,-1.875,0.0899966,-0.317169,-1.40856
33,49270428325,-0.06842039999999999,-0.149292,-0.633545,0.756104,0.29834,0.0898438,0.945801,0.125,-2.625,-1.75,0.0903401,-0.317777,-1.40939
34,49270450784,-0.0686035,-0.149536,-0.633789,0.755798,0.303711,0.09179689999999999,0.936523,-0.875,-2.375,-1.9375,0.0905133,-0.318349,-1.4101700000000001
35,49270464973,-0.0689087,-0.149536,-0.634033,0.7556149999999999,0.302734,0.09863279999999999,0.9389649999999999,-2.4375,-1.8125,-1.1875,0.0901405,-0.318734,-1.41082
36,49270488240,-0.069397,-0.14935299999999999,-0.634216,0.755432,0.303711,0.08154299999999999,0.9443360000000001,-3.0,-2.0,-1.1875,0.0892094,-0.319064,-1.4111799999999999
37,49270510664,-0.0698242,-0.149292,-0.634338,0.755249,0.30175799999999997,0.08007810000000001,0.9526370000000001,-1.9375,-2.125,-0.6875,0.0885238,-0.319498,-1.41143
38,49270525102,-0.0700073,-0.149475,-0.6343989999999999,0.755188,0.303711,0.08251950000000001,0.9370120000000001,-0.1875,-2.125,-0.6875,0.0885204,-0.320023,-1.4117
39,49270548365,-0.0702515,-0.14965799999999999,-0.63446,0.755066,0.309082,0.0922852,0.934082,-1.125,-1.9375,-0.375,0.088431,-0.320612,-1.41194
40,49270570786,-0.07073969999999999,-0.149597,-0.634521,0.754944,0.304688,0.0864258,0.933594,-2.75,-1.9375,0.0,0.0876223,-0.32113800000000003,-1.41203
41,49270585064,-0.07135010000000001,-0.149475,-0.634583,0.754883,0.311523,0.0766602,0.948242,-2.9375,-1.9375,0.0625,0.0865296,-0.32175,-1.41209
42,49270608179,-0.0717163,-0.14935299999999999,-0.634583,0.754883,0.305664,0.08105470000000001,0.9438479999999999,-1.9375,-1.8125,0.5,0.08578910000000001,-0.322046,-1.412
43,49270630718,-0.07208250000000001,-0.14935299999999999,-0.634583,0.754883,0.31005900000000003,0.0913086,0.94873,-2.3125,-1.875,0.5625,0.0852178,-0.322536,-1.41198
44,49270645217,-0.0727539,-0.14917,-0.634521,0.754883,0.305664,0.08935549999999999,0.9394530000000001,-4.3125,-2.1875,1.0,0.083897,-0.323133,-1.4116600000000001
45,49270668362,-0.0736694,-0.148804,-0.63446,0.754883,0.311523,0.0820312,0.938477,-5.4375,-2.125,1.3125,0.081941,-0.323766,-1.4112200000000001
46,49270690719,-0.074585,-0.148499,-0.6343989999999999,0.754944,0.316406,0.0864258,0.9360350000000001,-6.0,-1.9375,1.5,0.0800595,-0.324515,-1.41083
47,49270705124,-0.07543949999999999,-0.14801,-0.6342770000000001,0.755066,0.305664,0.08398439999999999,0.9316409999999999,-6.1875,-1.6875,2.5625,0.07799060000000001,-0.3249,-1.4101700000000001
48,49270728344,-0.0762939,-0.147339,-0.634033,0.75531,0.29980500000000004,0.0795898,0.9389649999999999,-6.375,-1.25,3.125,0.0756109,-0.325011,-1.4090799999999999
49,49270750690,-0.0770264,-0.14679,-0.633728,0.755554,0.306641,0.078125,0.9379879999999999,-5.5625,-1.0625,3.3125,0.073572,-0.32514099999999996,-1.4078899999999999
50,49270765148,-0.0775757,-0.146118,-0.633301,0.755981,0.29882800000000004,0.0834961,0.933594,-5.25,0.25,4.4375,0.07158439999999999,-0.324867,-1.40632
51,49270788395,-0.0780029,-0.145325,-0.6328739999999999,0.75647,0.30127,0.07470700000000001,0.930176,-5.0,1.25,4.6875,0.0696115,-0.324252,-1.4047100000000001
52,49270810833,-0.0784302,-0.144531,-0.632324,0.75708,0.31543000000000004,0.06738279999999999,0.940918,-4.125,1.9375,5.375,0.0675828,-0.323651,-1.40278
53,49270825264,-0.0786743,-0.143921,-0.631592,0.7577510000000001,0.315918,0.053710900000000006,0.932617,-2.0625,2.125,6.0625,0.0660292,-0.32308400000000004,-1.40044
54,49270848163,-0.0787354,-0.143372,-0.630798,0.758484,0.316895,0.050293,0.9462889999999999,-0.4375,2.3125,5.75,0.0648206,-0.322377,-1.3980000000000001
55,49270870899,-0.07855219999999999,-0.142822,-0.630066,0.7592770000000001,0.30956999999999996,0.0595703,0.945312,-0.25,3.0625,6.25,0.0640073,-0.321373,-1.3957600000000001
56,49270885097,-0.0783081,-0.142151,-0.629272,0.760071,0.303711,0.0454102,0.9472659999999999,0.625,3.3125,6.1875,0.0631088,-0.320081,-1.3932799999999999
57,49270908362,-0.0779419,-0.141541,-0.6283569999999999,0.760925,0.29980500000000004,0.040039099999999994,0.9526370000000001,1.6875,3.25,6.625,0.0624436,-0.318723,-1.39052
58,49270930775,-0.0775146,-0.141052,-0.627625,0.7617189999999999,0.29394499999999996,0.0268555,0.9545899999999999,3.25,2.625,5.25,0.06210890000000001,-0.317492,-1.38834
59,49270945194,-0.0769653,-0.14093,-0.6270140000000001,0.7622680000000001,0.312012,0.030273400000000002,0.952148,4.625,2.75,3.625,0.0625418,-0.316634,-1.38667
60,49270968248,-0.07635499999999999,-0.141052,-0.626404,0.762817,0.3125,0.047851599999999994,0.953125,4.5,1.5625,3.875,0.063403,-0.31609,-1.38514
61,49270990877,-0.0760498,-0.141052,-0.625793,0.763367,0.304688,0.044433600000000004,0.955566,3.1875,1.0625,4.0,0.0636171,-0.315753,-1.38353
62,49271005040,-0.0761108,-0.140869,-0.625366,0.763733,0.29980500000000004,0.0454102,0.954102,0.625,-0.25,2.9375,0.0630881,-0.315579,-1.38228
63,49271027644,-0.0762939,-0.140747,-0.625061,0.763977,0.304199,0.043457,0.9404299999999999,0.0,-0.3125,2.3125,0.06250399999999999,-0.31564699999999996,-1.3813799999999998
64,49271044176,-0.076416,-0.140747,-0.624817,0.7641600000000001,0.306152,0.0507812,0.935059,0.1875,-0.4375,1.5,0.0622091,-0.315823,-1.3807200000000002
65,49271065077,-0.0764771,-0.140747,-0.624817,0.7641600000000001,0.320312,0.041503899999999996,0.949219,-0.8125,-0.5,0.625,0.062112400000000005,-0.31590300000000004,-1.3807200000000002
66,49271087513,-0.0762939,-0.140808,-0.624634,0.764343,0.304199,0.0512695,0.9501950000000001,1.75,0.0625,0.9375,0.0624014,-0.315785,-1.38028
67,49271104123,-0.07592769999999999,-0.14093,-0.624512,0.764465,0.29980500000000004,0.0678711,0.9536129999999999,1.4375,-0.25,1.0,0.0630909,-0.315517,-1.38004
68,49271125177,-0.0758667,-0.141052,-0.624268,0.764587,0.306152,0.060058600000000004,0.9394530000000001,1.125,-0.375,1.25,0.0632605,-0.31563,-1.37944
69,49271147518,-0.07574460000000001,-0.141174,-0.624084,0.764771,0.300781,0.046875,0.935059,1.6875,-0.3125,1.1875,0.0635352,-0.31569200000000003,-1.37903
70,49271163982,-0.07507319999999999,-0.14135699999999998,-0.62384,0.765015,0.289062,0.0561523,0.9389649999999999,4.4375,0.375,1.25,0.0647355,-0.315139,-1.37853
71,49271185029,-0.0741577,-0.141724,-0.6235350000000001,0.765259,0.29541,0.0649414,0.941406,5.4375,0.9375,1.3125,0.06655169999999999,-0.314552,-1.37796
72,49271207730,-0.07336430000000001,-0.141724,-0.623352,0.7655029999999999,0.287109,0.059082,0.9477540000000001,3.9375,1.625,1.0625,0.0677171,-0.313556,-1.37754
73,49271224070,-0.072937,-0.141602,-0.623291,0.765625,0.29492199999999996,0.0664062,0.956543,1.4375,0.875,0.5,0.0681929,-0.312827,-1.3773600000000001
74,49271245079,-0.072937,-0.141602,-0.623291,0.765625,0.306152,0.0595703,0.9599610000000001,-0.0625,0.9375,0.25,0.0681929,-0.312827,-1.3773600000000001
75,49271267677,-0.072876,-0.141541,-0.623291,0.765625,0.288574,0.06542970000000001,0.9511719999999999,-0.4375,0.5,0.5625,0.0682073,-0.312648,-1.37732
76,49271283965,-0.07281489999999999,-0.141235,-0.623352,0.765625,0.282715,0.0703125,0.9477540000000001,-1.3125,0.0625,0.0625,0.0679109,-0.312087,-1.37734
77,49271304998,-0.072937,-0.140991,-0.623352,0.765686,0.290527,0.0639648,0.940918,-1.4375,-0.0625,0.3125,0.0673793,-0.311872,-1.37721
78,49271327642,-0.072876,-0.14093,-0.623352,0.765686,0.29541,0.0625,0.949707,-0.125,0.75,0.6875,0.0673938,-0.311694,-1.3771799999999998
79,49271343909,-0.07250980000000001,-0.140808,-0.623291,0.765808,0.290527,0.0742188,0.945312,0.5,1.1875,0.9375,0.06777310000000002,-0.31104499999999996,-1.37699
80,49271365087,-0.0721436,-0.14068599999999998,-0.623108,0.765991,0.29394499999999996,0.0776367,0.945312,0.5625,1.0,1.5625,0.0681073,-0.310395,-1.37646
81,49271387740,-0.0719604,-0.14056400000000002,-0.6228640000000001,0.766235,0.302246,0.0629883,0.9462889999999999,0.8125,1.125,1.5625,0.06812439999999999,-0.309994,-1.37576
82,49271404131,-0.07128910000000001,-0.14056400000000002,-0.622498,0.766602,0.29199200000000003,0.055664099999999994,0.954102,3.875,1.625,2.25,0.0690257,-0.30917,-1.37484
83,49271425071,-0.0704346,-0.140747,-0.62207,0.766968,0.286621,0.06835939999999999,0.9428709999999999,4.6875,1.5,2.625,0.0704461,-0.308393,-1.37385
84,49271447667,-0.06988530000000001,-0.14093,-0.6216430000000001,0.767334,0.300293,0.07226560000000001,0.940918,3.25,1.3125,2.75,0.0713832,-0.308016,-1.37285
85,49271464027,-0.0695801,-0.14093,-0.621216,0.7677,0.309082,0.0698242,0.953125,1.5625,1.5,2.9375,0.0716876,-0.307664,-1.37174
86,49271485063,-0.06933589999999999,-0.14068599999999998,-0.620789,0.768127,0.289062,0.0625,0.9628909999999999,1.25,1.0625,2.875,0.0715593,-0.307016,-1.3705
87,49271507682,-0.0690308,-0.140381,-0.620422,0.768494,0.277832,0.05273440000000001,0.973633,1.9375,0.3125,2.625,0.0714737,-0.306182,-1.3693899999999999
88,49271524011,-0.0684814,-0.140625,-0.620117,0.768738,0.288086,0.049316399999999996,0.9824219999999999,4.875,-0.5625,1.4375,0.0725479,-0.30588899999999997,-1.36874
89,49271546517,-0.06781010000000001,-0.14111300000000002,-0.619812,0.7689819999999999,0.289551,0.0581055,0.9838870000000001,5.875,-1.125,1.375,0.0741432,-0.305831,-1.36824
90,49271567584,-0.06701660000000001,-0.14141800000000002,-0.61969,0.769104,0.300293,0.057128899999999996,0.9780270000000001,5.9375,0.9375,-0.4375,0.07575830000000001,-0.305311,-1.36814
91,49271584099,-0.06658939999999999,-0.142151,-0.620056,0.768677,0.300781,0.0664062,0.960938,4.625,-2.0625,-3.8125,0.077587,-0.305861,-1.36951
92,49271606667,-0.06726069999999999,-0.14288299999999998,-0.6206050000000001,0.768066,0.324707,0.0625,0.9746090000000001,-0.25,-5.125,-4.875,0.07775610000000001,-0.30781,-1.3713
93,49271627504,-0.06842039999999999,-0.143433,-0.62146,0.767212,0.32666,0.05273440000000001,1.0083,-2.5,-6.6875,-6.4375,0.0770353,-0.31007199999999996,-1.3737700000000002
94,49271643990,-0.0697632,-0.143982,-0.622375,0.766174,0.315918,0.06054690000000001,1.04639,-4.0625,-9.5,-7.0625,0.0760753,-0.312531,-1.37637
95,49271666693,-0.0704956,-0.14514200000000002,-0.6235350000000001,0.764954,0.319336,0.07617189999999999,1.04492,-0.0625,-9.5625,-9.375,0.07701569999999999,-0.315157,-1.38002
96,49271695898,-0.0709229,-0.14752200000000001,-0.625061,0.763245,0.334961,0.137207,0.9873049999999999,0.5625,-12.3125,-12.3125,0.0802965,-0.319248,-1.38535
97,49271710208,-0.0734863,-0.150574,-0.626404,0.761292,0.386719,0.17871099999999998,0.854492,-9.5,-17.4375,-9.8125,0.08113789999999999,-0.327129,-1.39042
98,49271726650,-0.0790405,-0.151978,-0.628052,0.7590939999999999,0.422363,0.141602,0.756836,-27.0,-16.9375,-9.9375,0.0751797,-0.336318,-1.3952
99,49271747653,-0.0830688,-0.15246600000000002,-0.6293949999999999,0.757446,0.46581999999999996,0.10546900000000001,0.7983399999999999,-21.0,-5.5,-8.125,0.0702062,-0.342174,-1.3988
100,49271769990,-0.0839233,-0.153687,-0.6289060000000001,0.7575069999999999,0.49121099999999995,0.16650399999999999,0.8579100000000001,-5.9375,3.4375,3.9375,0.07037,-0.345213,-1.39809
101,49271786482,-0.081604,-0.155396,-0.6271359999999999,0.758911,0.547363,0.396484,0.831543,-3.75,17.6875,16.8125,0.0755687,-0.345021,-1.39445
102,49271807504,-0.08288569999999999,-0.15240499999999998,-0.62384,0.762085,0.441406,0.282715,0.844727,-26.8125,18.9375,33.0,0.0678042,-0.342354,-1.38373
103,49271830064,-0.08496089999999999,-0.147095,-0.619446,0.766418,0.421875,0.261719,0.8964840000000001,-36.5,24.25,43.6875,0.0551322,-0.337077,-1.36883
104,49271846452,-0.0876465,-0.140869,-0.614258,0.7714840000000001,0.445801,0.12548800000000002,0.9091799999999999,-33.125,28.4375,47.6875,0.040006400000000004,-0.331045,-1.35155
105,49271867480,-0.08752439999999999,-0.135864,-0.607849,0.777405,0.429688,0.050293,0.950684,-10.3125,31.75,51.625,0.030679700000000004,-0.323246,-1.33217
106,49271890196,-0.0828247,-0.133972,-0.600769,0.783752,0.42041000000000006,0.0634766,0.9360350000000001,20.5,33.6875,51.3125,0.0327588,-0.314687,-1.3131899999999999
107,49271906505,-0.0743408,-0.13446,-0.5933229999999999,0.790161,0.410156,0.133301,0.9545899999999999,42.625,35.5625,50.5,0.0441306,-0.30543400000000004,-1.29492
108,49271927764,-0.06463619999999999,-0.136169,-0.5855100000000001,0.79657,0.405273,0.186523,0.9008790000000001,49.5,35.375,51.375,0.059102499999999995,-0.296973,-1.27662
109,49271952997,-0.0557861,-0.137207,-0.577454,0.802856,0.400391,0.18212899999999999,0.885742,44.0625,36.1875,52.3125,0.0719217,-0.288738,-1.25749
110,49271974004,-0.0479126,-0.137695,-0.569397,0.809021,0.396973,0.167969,0.866699,39.5,35.6875,52.25,0.08261360000000001,-0.281045,-1.23823
111,49271987670,-0.040588400000000004,-0.138123,-0.561401,0.814941,0.40380900000000003,0.14502,0.885742,39.25,34.625,50.9375,0.0925109,-0.27411599999999997,-1.21925
112,49272010136,-0.0321655,-0.13989300000000002,-0.552979,0.8207399999999999,0.39502,0.160156,0.901855,48.5625,31.3125,51.125,0.10589900000000001,-0.268416,-1.2001
113,49272026491,-0.023315400000000003,-0.142822,-0.544006,0.826477,0.36425799999999997,0.18603499999999998,0.8876950000000001,53.625,25.375,53.125,0.12136199999999998,-0.26452,-1.18039
114,49272047659,-0.0159912,-0.146545,-0.534729,0.832031,0.340332,0.175781,0.9189450000000001,50.9375,14.5,55.0,0.135196,-0.264019,-1.16035
115,49272070070,-0.0100708,-0.152222,-0.524597,0.8375239999999999,0.354004,0.162598,0.935059,53.0,0.8125,59.125,0.14870799999999998,-0.268769,-1.13923
116,49272086485,-0.00561523,-0.159973,-0.514099,0.842651,0.364746,0.176758,0.908691,52.0,-13.0625,61.1875,0.16196300000000002,-0.278982,-1.11839
117,49272107524,-0.00335693,-0.168762,-0.503845,0.8471069999999999,0.371094,0.178223,0.8901370000000001,44.8125,-25.625,59.3125,0.172572,-0.293498,-1.09867
118,49272130077,-0.00323486,-0.177734,-0.494141,0.8510129999999999,0.351562,0.150391,0.8999020000000001,36.8125,-35.875,57.0,0.17966600000000002,-0.310679,-1.08035
119,49272146496,-0.00494385,-0.186646,-0.485291,0.854187,0.312012,0.11035199999999999,0.939941,30.1875,-46.25,52.5625,0.183563,-0.329594,-1.0639299999999998
120,49272167689,-0.00817871,-0.196167,-0.47735600000000006,0.856506,0.272461,0.036621100000000004,0.941895,28.0625,-58.1875,46.25,0.185587,-0.351008,-1.04992
121,49272190089,-0.0131226,-0.20654299999999998,-0.470581,0.857727,0.281738,0.0185547,0.9379879999999999,22.0,-69.4375,38.9375,0.185814,-0.375422,-1.03896
122,49272220853,-0.0187988,-0.217651,-0.465454,0.857666,0.292969,0.0175781,0.9355469999999999,18.25,-77.5,27.75,0.186164,-0.401549,-1.0324
123,49272229639,-0.026245099999999997,-0.229675,-0.46136499999999997,0.856567,0.285156,0.015136700000000001,0.945801,10.8125,-90.375,22.25,0.184814,-0.430892,-1.0286899999999999
124,49272250065,-0.0358276,-0.245056,-0.457825,0.8538209999999999,0.290527,0.0175781,0.945801,0.3125,-108.25,19.8125,0.183923,-0.468192,-1.0283200000000001
125,49272266551,-0.0475464,-0.261963,-0.455078,0.8497309999999999,0.32324200000000003,0.0532227,0.9560549999999999,-8.25,-122.93799999999999,15.3125,0.181637,-0.510336,-1.0309
126,49272287491,-0.0613403,-0.278198,-0.45391800000000004,0.844299,0.405762,0.0644531,0.9443360000000001,-23.125,-126.18799999999999,7.375,0.176006,-0.553246,-1.03671
127,49272311564,-0.07507319999999999,-0.292236,-0.454346,0.8381959999999999,0.45068400000000003,0.026367200000000004,1.00195,-30.75,-116.875,-1.875,0.169167,-0.59212,-1.04519
128,49272326551,-0.0891724,-0.305603,-0.455383,0.831421,0.40869099999999997,-0.0268555,0.9824219999999999,-34.875,-116.06200000000001,-5.9375,0.161691,-0.630297,-1.05497
129,49272347535,-0.103577,-0.319519,-0.45623800000000003,0.8240360000000001,0.429199,-0.015625,0.976074,-35.375,-121.06200000000001,-6.1875,0.154818,-0.670147,-1.06531
130,49272370207,-0.11785899999999999,-0.333435,-0.456604,0.816345,0.460938,0.0268555,0.976074,-34.8125,-122.18799999999999,-4.5625,0.14835399999999999,-0.710253,-1.07503
131,49272386490,-0.13189700000000001,-0.34619099999999997,-0.457031,0.8085939999999999,0.5043949999999999,-0.00195312,0.9838870000000001,-36.6875,-116.18799999999999,-4.9375,0.141214,-0.748334,-1.08437
132,49272407567,-0.145569,-0.358032,-0.457825,0.800659,0.492676,-0.033691399999999996,0.9311520000000001,-38.1875,-111.18799999999999,-7.375,0.134275,-0.784701,-1.09454
133,49272430120,-0.159058,-0.369751,-0.459106,0.791992,0.505371,-0.0356445,0.9223629999999999,-39.1875,-111.625,-11.8125,0.128823,-0.8208549999999999,-1.10687
134,49272446432,-0.17218,-0.38147,-0.46051000000000003,0.782837,0.544434,-0.0200195,0.8652340000000001,-38.3125,-111.18799999999999,-14.5625,0.125196,-0.856934,-1.12081
135,49272469105,-0.18573,-0.393311,-0.46173100000000006,0.773071,0.546875,-0.0141602,0.855469,-40.8125,-114.5,-14.1875,0.121724,-0.894073,-1.13526
136,49272490245,-0.200317,-0.405884,-0.461609,0.762939,0.371582,-0.00488281,0.7856449999999999,-40.9375,-124.43799999999999,-7.1875,0.116468,-0.9344389999999999,-1.1470799999999999
137,49272506487,-0.21044899999999997,-0.40924099999999997,-0.46740699999999996,0.754883,0.8901370000000001,-0.0634766,0.9702149999999999,-51.0,-73.5,-34.4375,0.111999,-0.9520190000000001,-1.1667100000000001
138,49272529032,-0.211731,-0.40570100000000003,-0.475891,0.751099,0.674805,0.07519529999999999,1.04736,-37.875,-19.0,-38.0625,0.11660999999999999,-0.9457979999999999,-1.18928
139,49272550248,-0.213806,-0.39868200000000004,-0.484192,0.748962,0.366699,0.08398439999999999,0.929688,-49.4375,-7.6875,-24.8125,0.11095899999999999,-0.934398,-1.2038799999999998
140,49272566597,-0.217773,-0.391846,-0.492004,0.7462770000000001,0.308105,0.016113299999999997,0.898438,-53.875,-15.625,-23.9375,0.100885,-0.925866,-1.2160799999999998
141,49272588976,-0.22338899999999998,-0.38879400000000003,-0.49682600000000005,0.743042,0.380371,-0.024414099999999998,0.8012699999999999,-43.6875,-33.25,-16.0,0.0906591,-0.926881,-1.2240799999999998
142,49272605388,-0.228149,-0.389648,-0.49938999999999995,0.739441,0.46728500000000006,-0.0371094,0.835938,-23.4375,-49.5625,-15.0625,0.08718619999999999,-0.934185,-1.23204
143,49272626496,-0.230408,-0.39550799999999997,-0.49883999999999995,0.735962,0.5214840000000001,0.022460900000000002,0.8505860000000001,6.0,-67.25,-10.9375,0.09515169999999999,-0.947623,-1.24016
144,49272649039,-0.231384,-0.404541,-0.496216,0.732544,0.6308590000000001,0.0922852,0.796875,22.875,-73.1875,-6.0625,0.110019,-0.9654780000000001,-1.24854
145,49272665443,-0.233582,-0.41497799999999996,-0.49353,0.727783,0.803711,0.11084000000000001,0.7436520000000001,19.5625,-77.375,-8.4375,0.126709,-0.987383,-1.26005
146,49272686452,-0.235229,-0.42492700000000005,-0.48999,0.723938,0.8608399999999999,0.09667970000000001,0.735352,24.875,-71.9375,-4.5625,0.142599,-1.00799,-1.2688700000000002
147,49272709005,-0.23669400000000002,-0.435547,-0.485413,0.7202149999999999,0.9233399999999999,0.100098,0.6831050000000001,30.1875,-71.625,-1.375,0.159672,-1.0297399999999999,-1.2766600000000001
148,49272725577,-0.236816,-0.44799799999999995,-0.48053,0.715759,0.8442379999999999,0.157227,0.652832,38.875,-80.5625,-4.6875,0.186023,-1.053,-1.29082
149,49272748115,-0.24102800000000002,-0.46343999999999996,-0.47369399999999995,0.709045,0.910645,0.13281199999999999,0.580078,33.5,-103.125,0.0,0.210919,-1.0876700000000001,-1.30579
150,49272768194,-0.247986,-0.47936999999999996,-0.466736,0.700623,0.972656,0.101074,0.466797,21.75,-116.06200000000001,1.5625,0.235114,-1.12717,-1.32433
151,49272790885,-0.256226,-0.49743699999999996,-0.45800799999999997,0.690796,0.9741209999999999,0.10888699999999998,0.308105,25.4375,-132.75,5.6875,0.26553499999999997,-1.17311,-1.34809
152,49272805865,-0.267517,-0.516907,-0.447632,0.678894,1.021,0.101074,0.162109,18.0625,-152.875,13.4375,0.29937800000000003,-1.2266,-1.37741
153,49272828342,-0.277283,-0.536926,-0.439514,0.664551,0.9472659999999999,0.181152,0.14111300000000002,14.75,-155.75,-5.625,0.366286,-1.27775,-1.4420600000000001
154,49272850642,-0.28613299999999997,-0.5561520000000001,-0.432251,0.649658,0.8720700000000001,0.0976562,0.100098,12.9375,-151.25,-13.375,0.46436499999999997,-1.32515,-1.53914
155,49272865902,-0.29364,-0.574036,-0.427124,0.633911,0.804688,0.181641,0.08007810000000001,6.75,-142.812,-23.875,0.611217,-1.36362,-1.6872099999999999
156,49272888199,-0.29895,-0.590881,-0.42266800000000004,0.6187739999999999,0.8349610000000001,0.184082,0.07373049999999999,10.75,-131.062,-30.5,0.811342,-1.39144,-1.88715
157,49272910840,-0.30456500000000003,-0.605225,-0.41876199999999997,0.604675,0.8623049999999999,0.134766,0.101074,3.75,-119.18799999999999,-25.625,1.03705,-1.40944,-2.1147099999999996
158,49272925837,-0.31048600000000004,-0.616638,-0.41656499999999996,0.591492,0.9995120000000001,0.052246100000000004,0.0454102,-8.4375,-103.56200000000001,-25.1875,1.2620200000000001,-1.41668,-2.34545
159,49272948365,-0.317444,-0.625977,-0.41333000000000003,0.5801390000000001,1.02881,-0.0288086,0.0170898,-9.5,-94.0625,-21.0,1.47212,-1.42049,-2.56154
160,49272970879,-0.322205,-0.635315,-0.408508,0.5707399999999999,1.0200200000000001,0.0561523,0.0102539,6.6875,-86.875,-13.125,1.6688599999999998,-1.4186299999999998,-2.75805
161,49272985751,-0.324158,-0.645203,-0.402344,0.562866,0.988281,0.180176,-0.020996099999999997,24.875,-78.25,-7.5,1.841,-1.41044,-2.9235599999999997
162,49273008306,-0.32617199999999996,-0.654663,-0.395142,0.555908,0.895508,0.232422,-0.100098,28.9375,-71.9375,3.4375,1.99535,-1.4010799999999999,-3.06937
163,49273030730,-0.326721,-0.664246,-0.391296,0.546814,0.924316,0.30127,-0.158203,17.3125,-68.4375,-14.0,2.10406,-1.38145,3.1092
164,49273045905,-0.324768,-0.673096,-0.388916,0.5387569999999999,1.0127,0.24560500000000002,-0.109375,20.6875,-59.375,-30.25,2.16405,-1.3601,3.05487
165,49273068243,-0.322571,-0.6816409999999999,-0.384399,0.532593,1.0083,0.128418,-0.10497999999999999,31.75,-56.25,-27.9375,2.22148,-1.34255,3.00762
166,49273092387,-0.321167,-0.690552,-0.377869,0.526489,0.891602,0.157227,-0.14599600000000001,38.0,-60.125,-16.1875,2.28743,-1.32463,2.9529799999999997
167,49273105668,-0.32135,-0.699341,-0.371765,0.519165,0.938477,0.169922,-0.185547,28.9375,-66.8125,-13.9375,2.35181,-1.30575,2.89732
168,49273128432,-0.323853,-0.7071529999999999,-0.367249,0.5101319999999999,1.00342,0.157227,-0.262207,9.375,-70.0625,-12.5,2.40856,-1.2847,2.8420799999999997
169,49273150683,-0.32922399999999996,-0.714233,-0.36047399999999996,0.501526,1.03467,0.06933589999999999,-0.359375,7.3125,-72.5,1.1875,2.47967,-1.2655299999999998,2.77142
170,49273165847,-0.333313,-0.7223510000000001,-0.350708,0.49408,0.995117,0.0742188,-0.355469,27.8125,-75.6875,6.75,2.55328,-1.2456,2.7054
171,49273188339,-0.334839,-0.73053,-0.340698,0.488037,0.9311520000000001,0.0688477,-0.293457,40.0625,-70.0625,-0.0625,2.61131,-1.22619,2.65962
172,49273210813,-0.33569299999999996,-0.7380369999999999,-0.332581,0.48175,0.814453,0.13525399999999999,-0.303711,33.5,-62.5,-1.0625,2.65265,-1.20654,2.62836
173,49273225846,-0.337036,-0.743958,-0.328491,0.474426,0.846191,0.22216799999999998,-0.41699200000000003,11.0,-50.625,-4.0,2.6734,-1.1872200000000002,2.61002
174,49273248144,-0.337891,-0.749084,-0.326782,0.466858,0.964355,0.193848,-0.507324,-1.1875,-42.0625,-15.0,2.68072,-1.16876,2.60205
175,49273270688,-0.341064,-0.755676,-0.320862,0.45800799999999997,0.8803709999999999,0.125,-0.507324,8.9375,-63.625,-2.5625,2.7101599999999997,-1.1459,2.5746599999999997
176,49273285718,-0.345032,-0.764648,-0.30950900000000003,0.44781499999999996,0.8647459999999999,0.049316399999999996,-0.530762,30.9375,-88.3125,4.0,2.75829,-1.11617,2.5350200000000003
177,49273308294,-0.346985,-0.7733760000000001,-0.29675300000000004,0.43981899999999996,0.8432620000000001,0.013183600000000002,-0.43066400000000005,46.25,-85.1875,1.375,2.80324,-1.08914,2.5043
178,49273330724,-0.347534,-0.781433,-0.286194,0.432129,0.7456050000000001,0.0786133,-0.484863,41.4375,-70.9375,-2.875,2.8342099999999997,-1.06396,2.48658
179,49273345740,-0.348267,-0.789917,-0.28015100000000004,0.419861,0.744629,0.19873,-0.6362300000000001,14.8125,-76.5,-14.5625,2.84455,-1.03223,2.4805099999999998
180,49273368273,-0.350403,-0.799194,-0.274841,0.403748,0.739258,0.0644531,-0.7128909999999999,-3.875,-94.1875,-26.1875,2.85109,-0.993527,2.4735099999999997
181,49273390942,-0.348999,-0.809631,-0.269104,0.387756,0.8251950000000001,0.09960939999999999,-0.698242,12.875,-104.875,-40.375,2.85226,-0.9539610000000001,2.47798
182,49273405762,-0.343567,-0.820679,-0.260315,0.37512199999999996,0.908691,0.117676,-0.5507810000000001,42.875,-99.0625,-51.6875,2.85869,-0.918316,2.48926
183,49273428384,-0.337341,-0.8316040000000001,-0.250671,0.363098,0.8139649999999999,0.102051,-0.45410200000000006,50.375,-100.0,-52.375,2.8671599999999997,-0.883606,2.50133
184,49273450824,-0.332092,-0.8432620000000001,-0.244934,0.344482,0.763184,0.265625,-0.39355500000000004,20.625,-119.81200000000001,-61.1875,2.86237,-0.838527,2.5163900000000003
185,49273465897,-0.32629400000000003,-0.8540040000000001,-0.240723,0.32611100000000004,1.02539,0.06054690000000001,-0.31738299999999997,11.5,-118.0,-68.75,2.85442,-0.795327,2.53305
186,49273488236,-0.32104499999999997,-0.8628540000000001,-0.23901399999999998,0.308838,0.965332,0.114258,-0.480469,-2.4375,-103.06200000000001,-65.25,2.84274,-0.756571,2.54878
187,49273504018,-0.313904,-0.8688959999999999,-0.234619,0.302551,1.20459,0.114746,-0.510254,28.8125,-75.9375,-60.5625,2.8428,-0.738348,2.56466
188,49273527197,-0.309204,-0.871338,-0.224304,0.308105,1.31787,0.376465,-0.625977,82.875,-25.3125,-3.75,2.86643,-0.7418319999999999,2.56724
189,49273548268,-0.306091,-0.8724370000000001,-0.200623,0.323975,1.22217,0.7485350000000001,-0.565918,160.938,31.0,50.3125,2.93096,-0.758884,2.5510200000000003
190,49273564111,-0.292114,-0.8745120000000001,-0.16687000000000002,0.349426,1.10596,0.858398,-0.799805,251.188,76.5,26.9375,3.01697,-0.787576,2.54871
191,49273587279,-0.277893,-0.8750610000000001,-0.141968,0.37011700000000003,0.929688,1.31396,-0.936523,203.5,74.5625,13.1875,3.07934,-0.813439,2.5535
192,49273608186,-0.270874,-0.873352,-0.158997,0.37243699999999996,0.65918,1.27637,-0.882812,-11.375,62.875,-4.5625,3.02908,-0.8281370000000001,2.58967
193,49273624038,-0.274902,-0.86731,-0.187317,0.370361,0.5893550000000001,0.604492,-0.914062,-154.188,47.9375,-26.5,2.95864,-0.8411700000000001,2.6097599999999996
194,49273647213,-0.272034,-0.8624879999999999,-0.218689,0.366577,0.7773439999999999,0.13525399999999999,-0.7592770000000001,-161.938,45.25,-77.875,2.86891,-0.850057,2.65463
195,49273668231,-0.26245100000000005,-0.8598020000000001,-0.235657,0.369263,1.02344,-0.15332,-0.68457,-80.0,49.5,-98.9375,2.81113,-0.8612879999999999,2.702
196,49273690846,-0.250244,-0.8593139999999999,-0.23901399999999998,0.376648,0.846191,-0.0664062,-0.734375,5.125,62.75,-73.1875,2.78795,-0.8740610000000001,2.74142
197,49273707193,-0.23584000000000002,-0.859924,-0.23645,0.386047,0.798828,0.05664059999999999,-0.708496,49.375,66.625,-62.5625,2.778,-0.8874620000000001,2.78058
198,49273728264,-0.221863,-0.860168,-0.23645,0.39373800000000003,0.7172850000000001,0.175293,-0.6816409999999999,37.5625,64.625,-60.9375,2.7599400000000003,-0.8983190000000001,2.82246
199,49273744233,-0.21099899999999996,-0.859497,-0.241272,0.39819299999999996,0.665039,0.199219,-0.675293,1.75,55.3125,-57.9375,2.73087,-0.904811,2.86193
200,49273767167,-0.203308,-0.857727,-0.24945100000000003,0.401062,0.710449,0.09033200000000001,-0.697754,-31.1875,49.625,-58.625,2.6957,-0.9098870000000001,2.8970599999999997
201,49273788397,-0.197021,-0.8558959999999999,-0.255798,0.404114,0.741699,-0.047851599999999994,-0.675293,-30.9375,45.0625,-56.4375,2.6673,-0.9149860000000001,2.926
202,49273804154,-0.188599,-0.855469,-0.257996,0.407532,0.766113,-0.038574199999999996,-0.6577149999999999,-2.8125,40.75,-58.375,2.64804,-0.9183100000000001,2.95543
203,49273827176,-0.178223,-0.856201,-0.257446,0.41107200000000005,0.78418,0.09033200000000001,-0.65625,21.625,37.9375,-56.1875,2.63441,-0.9201389999999999,2.98663
204,49273848116,-0.168152,-0.856873,-0.256836,0.414246,0.770996,0.20751999999999998,-0.6679689999999999,24.375,37.1875,-48.4375,2.62125,-0.9211309999999999,3.01669
205,49273864171,-0.160339,-0.856934,-0.256348,0.41748,0.7304689999999999,0.23486300000000002,-0.635742,19.1875,35.75,-35.0,2.61053,-0.9234899999999999,3.04069
206,49273887331,-0.154358,-0.856567,-0.255554,0.421021,0.742188,0.19043,-0.59375,15.0625,32.875,-27.1875,2.60291,-0.927559,3.05943
207,49273908317,-0.149536,-0.85614,-0.253296,0.42492700000000005,0.7827149999999999,0.168457,-0.583496,18.875,29.875,-19.5,2.60085,-0.932895,3.07307
208,49273924031,-0.144836,-0.856323,-0.248352,0.42907700000000004,0.762207,0.16162100000000001,-0.612793,32.3125,30.125,-12.0625,2.60708,-0.9387129999999999,3.08245
209,49273947182,-0.139709,-0.856567,-0.24273699999999998,0.433472,0.715332,0.216797,-0.600586,39.375,32.375,-7.6875,2.61457,-0.9448700000000001,3.09225
210,49273968222,-0.134705,-0.8564450000000001,-0.237488,0.438171,0.668945,0.24951199999999998,-0.5625,39.1875,34.4375,-4.0625,2.62073,-0.951903,3.10261
211,49273984003,-0.130676,-0.855835,-0.23278800000000002,0.443115,0.666992,0.243164,-0.539062,33.875,35.375,-0.0625,2.62628,-0.960201,3.1113
212,49274007315,-0.127502,-0.8549190000000001,-0.228027,0.44824200000000003,0.6918949999999999,0.203125,-0.5668949999999999,30.125,37.0,2.3125,2.63298,-0.969442,3.11758
213,49274028195,-0.124573,-0.853577,-0.223816,0.45373500000000005,0.689453,0.23388699999999998,-0.6108399999999999,26.9375,43.0,5.3125,2.63793,-0.979751,3.12445
214,49274044118,-0.121155,-0.851318,-0.22045900000000002,0.460449,0.706543,0.239258,-0.5795899999999999,24.4375,51.0625,3.625,2.63807,-0.992504,3.13563
215,49274067166,-0.117798,-0.848083,-0.21844499999999997,0.46820100000000003,0.797363,0.21875,-0.524414,17.6875,54.0625,-0.75,2.63255,-1.00771,-3.1327
216,49274088389,-0.11523399999999999,-0.844482,-0.217102,0.475891,0.8769530000000001,0.248047,-0.530762,12.3125,53.25,2.375,2.62541,-1.02324,-3.11853
217,49274103907,-0.11334200000000001,-0.8408200000000001,-0.21472199999999997,0.48382600000000003,0.91748,0.285156,-0.549316,16.375,54.25,10.6875,2.6221400000000004,-1.03978,-3.10767
218,49274127335,-0.111755,-0.836426,-0.213562,0.492249,0.9780270000000001,0.32324200000000003,-0.536621,10.5,57.4375,11.375,2.61389,-1.0576299999999998,-3.09412
219,49274148365,-0.110779,-0.831177,-0.21405,0.501099,1.0224600000000001,0.365234,-0.495605,1.625,60.1875,13.25,2.59927,-1.07676,-3.07753
220,49274170860,-0.11041300000000001,-0.8253780000000001,-0.214844,0.510376,1.0400399999999999,0.38818400000000003,-0.45068400000000003,-1.0,61.625,17.6875,2.58271,-1.09723,-3.06034
221,49274187193,-0.110535,-0.819275,-0.215027,0.5200199999999999,1.05664,0.39306599999999997,-0.41845699999999997,0.6875,62.75,23.0,2.5673,-1.1188799999999999,-3.04413
222,49274208399,-0.11084000000000001,-0.812805,-0.215088,0.529907,1.04102,0.411621,-0.37695300000000004,0.9375,64.125,26.8125,2.5504,-1.14113,-3.02667
223,49274224142,-0.111572,-0.805603,-0.216309,0.540161,1.00195,0.442871,-0.303223,-5.125,66.125,29.5625,2.5268,-1.1644700000000001,-3.0047599999999997
224,49274254635,-0.11328099999999999,-0.797485,-0.21887199999999998,0.55072,0.976074,0.407227,-0.253906,-15.6875,69.625,29.375,2.49573,-1.1889299999999998,-2.97883
225,49274268255,-0.11602799999999999,-0.788208,-0.223083,0.561707,0.945801,0.34619099999999997,-0.198242,-28.8125,74.0625,27.0625,2.45397,-1.21466,-2.94619
226,49274284170,-0.11956800000000001,-0.777832,-0.227661,0.5734859999999999,0.933105,0.295898,-0.14111300000000002,-34.625,78.6875,28.625,2.4036,-1.2425,-2.90658
227,49274307257,-0.123108,-0.767029,-0.230896,0.5858760000000001,0.901855,0.26123,-0.08789060000000001,-29.1875,81.125,33.125,2.34905,-1.27175,-2.86082
228,49274328316,-0.126648,-0.756104,-0.232605,0.598511,0.862793,0.231934,-0.0405273,-22.5,81.0,37.8125,2.29058,-1.30162,-2.80897
229,49274343907,-0.130432,-0.745056,-0.233948,0.610901,0.8496090000000001,0.212891,0.0009765619999999999,-22.25,78.875,39.375,2.22206,-1.3308,-2.74701
230,49274366463,-0.13458299999999998,-0.733704,-0.23529099999999997,0.623047,0.867188,0.204102,0.053710900000000006,-24.0,76.375,41.0625,2.13701,-1.3587200000000001,-2.66934
231,49274388373,-0.13915999999999998,-0.722046,-0.236328,0.635193,0.8891600000000001,0.17627,0.09667970000000001,-24.75,75.5625,42.8125,2.03047,-1.3864299999999998,-2.57021
232,49274404154,-0.144043,-0.710083,-0.23675500000000002,0.647339,0.9047850000000001,0.158691,0.13183599999999998,-24.25,75.0,46.25,1.8926599999999998,-1.4127399999999999,-2.43953
233,49274426511,-0.149475,-0.697937,-0.23669400000000002,0.65918,0.9223629999999999,0.129883,0.13378900000000002,-24.875,75.3125,48.8125,1.71174,-1.43572,-2.26619
234,49274449675,-0.155334,-0.685425,-0.236511,0.670898,0.9277340000000001,0.107422,0.128906,-27.5625,77.75,50.5625,1.46644,-1.45392,-2.02895
235,49274464072,-0.161743,-0.672791,-0.236023,0.682312,0.924316,0.101074,0.138184,-28.875,77.4375,54.75,1.15835,-1.46545,-1.7294200000000002
236,49274486606,-0.169128,-0.659729,-0.235413,0.6933590000000001,0.9394530000000001,0.062011699999999996,0.146484,-33.6875,77.375,57.0625,0.810846,-1.46576,-1.39191
237,49274509732,-0.176819,-0.646606,-0.233948,0.704224,0.9707030000000001,0.00927734,0.166016,-31.5,76.9375,59.3125,0.486054,-1.45622,-1.07655
238,49274524141,-0.183899,-0.633789,-0.23083499999999998,0.7150270000000001,1.0127,-0.024414099999999998,0.174805,-22.6875,75.875,62.375,0.225696,-1.4384299999999999,-0.822519
239,49274546588,-0.190186,-0.621582,-0.22662399999999996,0.725342,1.05029,-0.0424805,0.179199,-15.1875,73.8125,63.1875,0.03761969999999999,-1.4152,-0.637881
240,49274569673,-0.19555699999999998,-0.609924,-0.22192399999999998,0.735168,1.0737299999999999,-0.018066400000000003,0.180176,-10.125,72.5,64.25,-0.0934357,-1.38939,-0.508369
241,49274584027,-0.200989,-0.59845,-0.217346,0.7445069999999999,1.05225,0.019531200000000002,0.18701199999999998,-11.75,70.9375,67.3125,-0.19050999999999998,-1.3629,-0.413638
242,49274606444,-0.207092,-0.587036,-0.212585,0.753235,1.01709,0.036621100000000004,0.194824,-15.5,68.375,72.125,-0.27048,-1.33531,-0.336574
243,49274629641,-0.214905,-0.574707,-0.208008,0.7617189999999999,0.980957,0.00390625,0.191895,-24.25,70.75,77.5,-0.343285,-1.30519,-0.269571
244,49274644116,-0.2229,-0.562866,-0.20239300000000002,0.769775,0.955566,-0.0249023,0.214844,-22.0625,65.4375,80.9375,-0.407738,-1.27575,-0.21014000000000002
245,49274666497,-0.23101799999999997,-0.551453,-0.194946,0.7775270000000001,0.885742,-0.09472660000000001,0.234375,-15.8125,58.4375,85.4375,-0.46842799999999996,-1.24567,-0.15196099999999998
246,49274689661,-0.23913600000000002,-0.5406489999999999,-0.187073,0.784546,0.9223629999999999,-0.17968800000000001,0.245117,-13.0625,54.25,82.1875,-0.521473,-1.21624,-0.100863
247,49274704064,-0.246948,-0.529968,-0.178528,0.7913819999999999,0.9511719999999999,-0.26367199999999996,0.25,-8.6875,53.6875,80.625,-0.567517,-1.1863,-0.0555281
248,49274726500,-0.253723,-0.5192260000000001,-0.168701,0.798462,0.9682620000000001,-0.273926,0.26709,0.0,55.0625,85.625,-0.605753,-1.1549399999999999,-0.0146653
249,49274749638,-0.26013200000000003,-0.507324,-0.159363,0.8059689999999999,0.9008790000000001,-0.29492199999999996,0.339844,-1.3125,57.6875,84.0625,-0.6346430000000001,-1.12135,0.0162474
250,49274770893,-0.267334,-0.49511700000000003,-0.149536,0.813049,0.8378909999999999,-0.36230500000000004,0.391113,-3.5625,52.875,85.3125,-0.663349,-1.08663,0.046338800000000006
251,49274786506,-0.27533,-0.483337,-0.138428,0.8193969999999999,0.835938,-0.45556599999999997,0.42333999999999994,-3.4375,45.625,88.6875,-0.694371,-1.0518,0.0793155
252,49274809605,-0.28241,-0.47229,-0.125,0.8255620000000001,0.8012699999999999,-0.526367,0.42480500000000004,8.875,39.0625,93.0625,-0.723327,-1.0167700000000002,0.114998
253,49274830780,-0.287903,-0.461975,-0.109375,0.831665,0.750977,-0.5268550000000001,0.431641,22.3125,32.3125,98.8125,-0.747768,-0.981615,0.151909
254,49274846473,-0.292236,-0.45233199999999996,-0.0938721,0.837341,0.7124020000000001,-0.5214840000000001,0.43994099999999997,24.5625,31.75,102.56200000000001,-0.766591,-0.948218,0.184843
255,49274875852,-0.296448,-0.441956,-0.0769043,0.84314,0.6503909999999999,-0.6137699999999999,0.435547,29.25,33.0,109.125,-0.783468,-0.912208,0.217981
256,49274890864,-0.299744,-0.431763,-0.0574951,0.848816,0.5722659999999999,-0.7045899999999999,0.425781,40.375,28.0,117.375,-0.798342,-0.874841,0.254198
257,49274906469,-0.302063,-0.421997,-0.035888699999999996,0.854065,0.533203,-0.731934,0.437012,50.125,21.25,124.18799999999999,-0.8110729999999999,-0.8368049999999999,0.293256
258,49274929663,-0.304016,-0.411804,-0.012573200000000001,0.859009,0.555664,-0.758301,0.417969,55.75,20.75,133.0,-0.821788,-0.796813,0.333445
259,49274950743,-0.305359,-0.40075700000000003,0.012512200000000001,0.863708,0.503418,-0.7954100000000001,0.42431599999999997,62.75,21.0,141.5,-0.8292719999999999,-0.7541,0.374103
260,49274966490,-0.306702,-0.389343,0.039856,0.8676149999999999,0.49121099999999995,-0.8720700000000001,0.419922,67.4375,17.3125,153.125,-0.8362360000000001,-0.709101,0.41785900000000004
261,49274996989,-0.307861,-0.377869,0.0691528,0.8704219999999999,0.48877,-0.882812,0.40331999999999996,70.9375,12.5625,163.5,-0.8422299999999999,-0.66268,0.464344
262,49275010883,-0.307678,-0.366211,0.100586,0.872375,0.472656,-0.8959959999999999,0.383789,81.375,7.6875,172.188,-0.844349,-0.615113,0.513034
263,49275033340,-0.30688499999999996,-0.354553,0.13250699999999999,0.87323,0.5058590000000001,-0.8525389999999999,0.39550799999999997,83.125,4.625,175.75,-0.843892,-0.567925,0.561733
264,49275049830,-0.306396,-0.34130900000000003,0.163574,0.8734129999999999,0.5170899999999999,-0.848145,0.42822299999999996,79.5,13.0625,176.0,-0.840492,-0.518951,0.6064189999999999
265,49275070868,-0.305298,-0.32757600000000003,0.194214,0.8728030000000001,0.490234,-0.9306639999999999,0.41113299999999997,82.375,14.875,174.375,-0.83396,-0.470387,0.649401
266,49275086629,-0.30249000000000004,-0.313782,0.224365,0.871582,0.48339799999999994,-0.917969,0.442871,88.3125,13.0625,169.938,-0.822652,-0.42381,0.691032
267,49275109570,-0.298767,-0.301025,0.252686,0.8696290000000001,0.46630900000000003,-0.870605,0.460938,86.8125,8.5625,159.562,-0.809417,-0.38178,0.730731
268,49275130683,-0.295166,-0.291626,0.27941900000000003,0.8658450000000001,0.517578,-0.8920899999999999,0.441406,76.0625,-7.4375,149.125,-0.799268,-0.346976,0.772062
269,49275146509,-0.28979499999999997,-0.284607,0.302917,0.8620610000000001,0.703125,-0.6206050000000001,0.445312,72.5625,-14.1875,130.688,-0.7869109999999999,-0.320592,0.809797
270,49275169850,-0.28131100000000003,-0.285828,0.31781,0.859131,0.751953,-0.41699200000000003,0.49853500000000006,55.1875,-25.625,88.6875,-0.775506,-0.317634,0.8392379999999999
271,49275190915,-0.280334,-0.286499,0.335083,0.8526610000000001,0.28418000000000004,-0.647461,0.48291000000000006,29.6875,-40.0625,94.0,-0.779022,-0.305429,0.8750680000000001
272,49275206469,-0.27636700000000003,-0.287903,0.34936500000000004,0.847717,0.42480500000000004,-0.581543,0.592773,32.0625,-37.5,78.625,-0.776712,-0.29946999999999996,0.905091
273,49275229693,-0.268982,-0.28918499999999997,0.361572,0.844543,0.41113299999999997,-0.617188,0.5527340000000001,52.125,-37.0625,57.75,-0.767209,-0.298352,0.9301809999999999
274,49275250745,-0.261658,-0.290955,0.376587,0.8396610000000001,0.319824,-0.6967770000000001,0.602051,55.125,-52.0,68.625,-0.759364,-0.295829,0.961967
275,49275266564,-0.245544,-0.293091,0.391846,0.836792,0.430176,-0.496094,0.508789,95.5,-61.9375,58.8125,-0.7357600000000001,-0.302682,0.993287
276,49275289664,-0.232239,-0.295898,0.408142,0.831787,0.289062,-0.44970699999999997,0.616211,73.3125,-73.1875,66.1875,-0.7192189999999999,-0.30749899999999997,1.0286799999999998
277,49275310708,-0.22589099999999998,-0.300659,0.419617,0.826111,0.38623,-0.5507810000000001,0.6264649999999999,31.1875,-56.6875,55.9375,-0.717276,-0.312229,1.0578
278,49275326505,-0.21911599999999998,-0.304871,0.42981,0.821106,0.354004,-0.625977,0.673828,34.9375,-54.875,45.125,-0.713747,-0.317619,1.08369
279,49275348924,-0.212769,-0.308899,0.439026,0.8164060000000001,0.313477,-0.6342770000000001,0.736328,30.1875,-55.125,38.0,-0.710771,-0.32314699999999996,1.10759
280,49275372101,-0.20459000000000002,-0.313354,0.447876,0.811951,0.34619099999999997,-0.6054689999999999,0.749023,35.6875,-59.625,33.875,-0.705303,-0.33164099999999996,1.13111
281,49275386561,-0.19635,-0.31811500000000004,0.456909,0.807129,0.39257800000000004,-0.557617,0.8251950000000001,29.4375,-62.125,37.4375,-0.700642,-0.34064099999999997,1.15573
282,49275409076,-0.190918,-0.322815,0.46643100000000004,0.801086,0.354004,-0.6289060000000001,0.8422850000000001,19.0625,-60.1875,44.8125,-0.701372,-0.345966,1.18216
283,49275432201,-0.184998,-0.326904,0.47747799999999996,0.79425,0.282715,-0.65918,0.823242,27.375,-64.625,49.625,-0.70117,-0.349708,1.2115200000000002
284,49275446530,-0.177795,-0.33123800000000003,0.489624,0.786682,0.288574,-0.6186520000000001,0.800293,33.125,-71.6875,55.125,-0.699913,-0.354426,1.24393
285,49275469004,-0.169739,-0.33569299999999996,0.502991,0.778137,0.28125,-0.6137699999999999,0.7563479999999999,39.4375,-77.125,61.0,-0.6983189999999999,-0.359362,1.27975
286,49275492174,-0.159973,-0.339478,0.517029,0.7692869999999999,0.296875,-0.576172,0.757812,48.0625,-79.6875,63.5,-0.693557,-0.36493600000000004,1.31663
287,49275506605,-0.150085,-0.342163,0.530884,0.76062,0.292969,-0.550293,0.7514649999999999,51.375,-75.125,63.125,-0.687282,-0.369508,1.35225
288,49275529113,-0.14093,-0.34387199999999996,0.544128,0.7521359999999999,0.28125,-0.523926,0.754883,49.0,-68.3125,62.3125,-0.680772,-0.372461,1.38576
289,49275552262,-0.132751,-0.345642,0.556396,0.7437739999999999,0.26367199999999996,-0.550293,0.7407229999999999,44.875,-65.1875,58.0625,-0.6759569999999999,-0.37517399999999995,1.4176600000000001
290,49275566509,-0.12451199999999998,-0.347534,0.56781,0.735718,0.29443400000000003,-0.560547,0.7485350000000001,44.0625,-63.375,53.5625,-0.6713210000000001,-0.378983,1.44818
291,49275589122,-0.11651600000000001,-0.348938,0.579224,0.727417,0.249023,-0.5820310000000001,0.7441409999999999,45.75,-63.375,53.375,-0.666555,-0.381884,1.47854
292,49275612083,-0.107971,-0.351074,0.590454,0.7186279999999999,0.275879,-0.56543,0.721191,45.1875,-67.5,53.375,-0.662622,-0.386641,1.51005
293,49275633325,-0.0984497,-0.354187,0.601013,0.709595,0.304199,-0.608398,0.717773,47.0625,-73.1875,48.5625,-0.659249,-0.39447,1.5419
294,49275649549,-0.0883789,-0.357239,0.611755,0.700134,0.32519499999999996,-0.641113,0.7128909999999999,51.625,-75.5,49.1875,-0.655664,-0.402911,1.57485
295,49275672103,-0.0758667,-0.35882600000000003,0.6232300000000001,0.690674,0.318848,-0.585449,0.708496,65.9375,-79.0625,48.75,-0.646844,-0.41271499999999994,1.6083
296,49275701479,-0.0634766,-0.361084,0.634521,0.68042,0.27880900000000003,-0.532227,0.69043,60.8125,-84.5,50.0625,-0.640192,-0.423357,1.64325
297,49275709157,-0.051147500000000005,-0.364014,0.645325,0.669617,0.303711,-0.557129,0.685547,58.6875,-87.4375,49.75,-0.6355569999999999,-0.435083,1.67897
298,49275733683,-0.0379028,-0.366638,0.6563720000000001,0.6582640000000001,0.322754,-0.5639649999999999,0.679688,64.0625,-90.125,50.875,-0.630182,-0.447744,1.71607
299,49275768686,-0.024536099999999998,-0.369568,0.667053,0.646423,0.37695300000000004,-0.5717770000000001,0.668457,64.0,-90.3125,52.0625,-0.6261140000000001,-0.461242,1.75393
300,49275784688,-0.0111694,-0.372375,0.677307,0.634338,0.42871099999999995,-0.555664,0.655273,63.0625,-87.5625,53.4375,-0.622609,-0.47495,1.79168
301,49275792191,0.0009765619999999999,-0.375793,0.687317,0.621582,0.500977,-0.604004,0.678711,57.375,-84.4375,58.1875,-0.622851,-0.48761000000000004,1.83095
302,49275859368,0.0113525,-0.380737,0.696228,0.608398,0.554688,-0.736816,0.706055,47.75,-82.8125,56.6875,-0.628901,-0.499615,1.8708
303,49275869221,0.020812999999999998,-0.38745100000000005,0.7032470000000001,0.595703,0.669922,-0.791992,0.705078,35.6875,-79.625,52.5625,-0.639808,-0.513105,1.90936
304,49275876311,0.0379639,-0.40033,0.714417,0.5726319999999999,0.81543,-0.866699,0.7749020000000001,29.25,-68.0625,44.4375,-0.663148,-0.538358,1.97963
305,49275889615,0.0470581,-0.40387,0.720032,0.5622560000000001,0.8251950000000001,-0.733398,0.760742,36.375,-60.4375,44.9375,-0.668516,-0.549104,2.01061
306,49275933703,0.055541999999999994,-0.40423600000000004,0.726685,0.552612,0.737793,-0.625,0.6660159999999999,48.4375,-46.9375,45.6875,-0.667851,-0.555649,2.03848
307,49275958485,0.0628662,-0.40313699999999997,0.732178,0.545288,0.6523439999999999,-0.577637,0.5825199999999999,48.5,-33.25,33.0,-0.663797,-0.560619,2.0590599999999997
308,49275963158,0.0689087,-0.40124499999999996,0.734924,0.542358,0.595703,-0.546875,0.530762,40.5,-17.25,7.375,-0.656434,-0.566311,2.0676
309,49275987861,0.07440189999999999,-0.398926,0.735535,0.5424800000000001,0.575684,-0.594727,0.496094,38.625,-7.4375,-14.3125,-0.646491,-0.5731350000000001,2.0674200000000003
310,49275993434,0.08300779999999999,-0.39355500000000004,0.73761,0.542358,0.614746,-0.674316,0.433594,71.3125,-6.3125,-19.75,-0.627419,-0.5815859999999999,2.06713
311,49276009420,0.090271,-0.391968,0.7384029999999999,0.541199,0.576172,-0.8442379999999999,0.49365200000000004,55.125,-19.9375,-22.9375,-0.61828,-0.591465,2.07057
312,49276047810,0.101868,-0.38861100000000004,0.7407229999999999,0.53833,0.664062,-0.90625,0.447266,85.5625,-30.0,-22.9375,-0.6027359999999999,-0.6056699999999999,2.07822
313,49276049538,0.11987300000000001,-0.374573,0.747803,0.5348510000000001,0.731934,-0.760742,0.38623,139.188,-31.9375,-13.625,-0.55894,-0.618685,2.0827400000000003
314,49276068671,0.139343,-0.358154,0.758301,0.52655,0.7612300000000001,-0.813477,0.250488,166.375,-36.875,11.8125,-0.512484,-0.629203,2.0977799999999998
315,49276091388,0.16125499999999998,-0.34063699999999997,0.772461,0.511108,0.540039,-0.742188,0.151855,192.0,-57.5625,46.9375,-0.467503,-0.640169,2.13004
316,49276113794,0.190247,-0.325317,0.786682,0.488892,0.21044899999999997,-0.544434,0.11718800000000001,207.188,-112.25,64.6875,-0.42708,-0.665455,2.17903
317,49276144512,0.223206,-0.313171,0.793396,0.47174099999999997,0.162109,-0.266113,0.23388699999999998,180.688,-139.938,19.375,-0.386204,-0.7071270000000001,2.21276
318,49276146917,0.25006100000000003,-0.292542,0.794556,0.469604,1.17969,0.490234,0.520508,163.125,-60.625,-51.25,-0.315894,-0.737085,2.19683
319,49276173852,0.25415,-0.279846,0.791931,0.47943100000000005,0.842773,-0.178223,0.8500979999999999,47.375,30.625,-73.5,-0.27245,-0.735386,2.15827
320,49276204755,0.25012199999999996,-0.279541,0.790771,0.48358199999999996,0.44970699999999997,-0.230469,0.686523,-15.75,14.5625,-20.375,-0.27170700000000003,-0.728754,2.14796
321,49276206919,0.25061,-0.287598,0.7912600000000001,0.477905,0.5039060000000001,-0.33007800000000004,0.6420899999999999,-19.625,-38.125,29.9375,-0.29521,-0.736211,2.16948
322,49276234015,0.257324,-0.29870599999999997,0.788574,0.47186300000000003,0.7983399999999999,-0.791992,0.287109,6.125,-50.1875,-0.125,-0.319861,-0.758364,2.19148
323,49276255428,0.272278,-0.289612,0.792053,0.463257,1.33057,-0.862793,0.176758,110.0,-38.75,3.875,-0.293217,-0.7749020000000001,2.20348
324,49276289323,0.288391,-0.267395,0.80542,0.443359,1.32812,-0.38769499999999996,0.291016,200.312,-13.9375,63.9375,-0.24816999999999997,-0.7777189999999999,2.23725
325,49276304164,0.297241,-0.254333,0.8161619999999999,0.42511000000000004,0.844727,0.128906,0.44677700000000004,126.75,-13.3125,80.5625,-0.22994099999999998,-0.777407,2.27561
326,49276333491,0.299683,-0.25244099999999997,0.824585,0.407959,0.419922,-0.170898,0.564453,57.5,-24.625,90.5,-0.243036,-0.775676,2.32235
327,49276338752,0.310425,-0.24145500000000003,0.830933,0.393433,0.570801,0.127441,0.550293,98.9375,-35.375,61.4375,-0.223521,-0.78366,2.34978
328,49276361223,0.326477,-0.229492,0.8317260000000001,0.385803,0.686523,0.275391,0.559082,89.375,-54.375,14.75,-0.188263,-0.804028,2.3530900000000003
329,49276400930,0.345154,-0.22332800000000003,0.830261,0.376282,0.796387,0.0429688,0.505371,80.375,-80.0625,14.625,-0.16626400000000002,-0.8348620000000001,2.36437
330,49276430180,0.367004,-0.219421,0.8278200000000001,0.363037,0.94873,-0.0102539,0.427246,86.1875,-98.125,28.3125,-0.151451,-0.874064,2.3858099999999998
331,49276432676,0.386108,-0.216675,0.825684,0.349426,1.00928,-0.09863279999999999,0.421875,79.0625,-101.81200000000001,30.5,-0.143714,-0.9092290000000001,2.41114
332,49276439267,0.40686,-0.212402,0.8225100000000001,0.33569299999999996,1.04883,-0.14209000000000002,0.43408199999999997,91.6875,-95.625,21.0625,-0.130998,-0.9473950000000001,2.4337
333,49276458815,0.42523199999999994,-0.203735,0.8207399999999999,0.322449,1.05029,-0.04394530000000001,0.482422,104.75,-86.875,17.0,-0.107974,-0.978029,2.45031
334,49276467995,0.44213900000000006,-0.194946,0.818787,0.309875,0.941895,0.0585938,0.520508,100.0,-81.8125,16.0625,-0.0846404,-1.00629,2.46453
335,49276542729,0.457825,-0.186279,0.8161010000000001,0.29931599999999997,0.9316409999999999,0.0976562,0.552246,87.5625,-76.8125,13.125,-0.0585505,-1.0328700000000002,2.47169
336,49276545030,0.47131300000000004,-0.177307,0.813904,0.289734,0.955566,0.12353499999999999,0.590332,82.625,-66.9375,11.75,-0.0314614,-1.0551,2.47589
337,49276551700,0.483154,-0.167603,0.81189,0.281433,0.955566,0.15332,0.5625,79.9375,-56.0,6.625,-0.00041578300000000003,-1.0735,2.47435
338,49276552556,0.493774,-0.156555,0.810425,0.273499,0.9404299999999999,0.183105,0.5141600000000001,83.5,-44.8125,4.0,0.0352515,-1.0885799999999999,2.4691799999999997
339,49276566139,0.502686,-0.14569100000000001,0.809631,0.265381,0.90625,0.195801,0.464844,81.5625,-34.4375,7.9375,0.0682197,-1.10022,2.46602
340,49276585002,0.510315,-0.135803,0.809387,0.256775,0.8466799999999999,0.13281199999999999,0.43408199999999997,79.125,-29.3125,10.5,0.09521210000000001,-1.11029,2.46795
341,49276608389,0.516846,-0.126709,0.809631,0.247375,0.8188479999999999,0.07519529999999999,0.40136700000000003,78.5,-24.125,14.375,0.11601500000000001,-1.11885,2.4756299999999998
342,49276624055,0.5231319999999999,-0.11675999999999999,0.810425,0.23645,0.8300780000000001,0.0332031,0.365234,88.5625,-19.0,16.375,0.135827,-1.1270200000000001,2.48793
343,49276653884,0.5294800000000001,-0.105652,0.811218,0.224487,0.8422850000000001,0.057128899999999996,0.33252,96.4375,-16.625,18.75,0.15770399999999998,-1.1348799999999999,2.50097
344,49276685142,0.535339,-0.0952759,0.811768,0.212769,0.862793,0.0512695,0.318848,91.875,-15.0625,19.125,0.177056,-1.1425299999999998,2.51475
345,49276687616,0.540588,-0.0859985,0.8123779999999999,0.20086700000000002,0.888184,0.0205078,0.32324200000000003,87.375,-13.4375,21.4375,0.190905,-1.1502700000000001,2.5327
346,49276715344,0.545837,-0.07745360000000001,0.812561,0.189026,0.9121090000000001,0.0126953,0.31738299999999997,84.0,-14.875,21.6875,0.20243699999999998,-1.15883,2.55159
347,49276728874,0.5505979999999999,-0.0699463,0.8125,0.17791700000000002,0.933105,-0.0009765619999999999,0.3125,76.625,-14.3125,20.9375,0.21108200000000002,-1.16709,2.5705
348,49276744050,0.555359,-0.061706500000000004,0.8122560000000001,0.167175,0.9599610000000001,0.036621100000000004,0.29541,77.75,-12.6875,18.625,0.22371,-1.17533,2.58612
349,49276765193,0.559814,-0.054382299999999995,0.811829,0.156372,0.986816,0.0214844,0.285156,73.8125,-11.9375,20.125,0.23201100000000002,-1.18356,2.6044
350,49276788184,0.564453,-0.046936,0.811096,0.14562999999999998,1.03564,0.00585938,0.232422,74.125,-9.5,18.375,0.24147800000000003,-1.1925700000000001,2.62173
351,49276802725,0.568787,-0.0383301,0.8104859999999999,0.134338,1.06787,0.0390625,0.199219,80.5,-4.9375,18.75,0.253515,-1.20068,2.63884
352,49276834246,0.572449,-0.0300903,0.809998,0.123352,1.05225,0.0664062,0.19775399999999999,76.1875,-2.3125,20.75,0.263508,-1.20766,2.65683
353,49276849875,0.575684,-0.022644,0.809387,0.11346400000000001,1.03467,0.0742188,0.183594,68.75,-1.0625,18.5,0.27262600000000003,-1.2140600000000001,2.67287
354,49276863904,0.578674,-0.0165405,0.8085939999999999,0.104797,1.05713,0.07714839999999999,0.18701199999999998,57.75,-1.3125,17.25,0.279227,-1.22056,2.68776
355,49276888105,0.58136,-0.011657700000000002,0.807678,0.097229,1.0537100000000001,0.05664059999999999,0.199219,49.5,-2.3125,15.0,0.28318499999999996,-1.2266700000000001,2.7017700000000002
356,49276977166,0.583923,-0.00695801,0.806702,0.09008789999999998,1.04102,0.047363300000000004,0.20361300000000002,47.1875,-3.375,12.9375,0.28738800000000003,-1.23261,2.71464
357,49277000990,0.586548,-0.00213623,0.805542,0.083313,1.02588,0.04980469999999999,0.200195,46.25,-4.625,11.0625,0.293568,-1.23862,2.72516
358,49277007882,0.5936279999999999,0.011474600000000001,0.801941,0.0652466,0.9980469999999999,0.046386699999999996,0.20459000000000002,38.5,-5.6875,7.1875,0.314263,-1.2552,2.75007
359,49277010163,0.595825,0.015014600000000001,0.800659,0.06054690000000001,1.01221,0.032714799999999995,0.212402,33.9375,-6.6875,4.875,0.320764,-1.26065,2.7555400000000003
360,49277031282,0.598083,0.0183716,0.799194,0.0563965,0.9936520000000001,0.030761700000000003,0.21044899999999997,31.1875,-8.25,2.5625,0.328662,-1.26597,2.7583599999999997
361,49277058963,0.600525,0.0214844,0.797485,0.05261230000000001,0.991699,0.019043,0.202148,29.125,-9.6875,0.6875,0.337384,-1.27155,2.7593099999999997
362,49277065297,0.6031489999999999,0.0245972,0.795654,0.0493774,0.9902340000000001,0.029785200000000005,0.198242,27.4375,-11.5,-1.0,0.349042,-1.27775,2.75687
363,49277088592,0.605591,0.0274048,0.793884,0.0461426,0.995117,0.0175781,0.1875,25.8125,-10.0,-1.0,0.35883000000000004,-1.28348,2.7556599999999998
364,49277102586,0.6076050000000001,0.030761700000000003,0.792419,0.0430908,0.995117,0.034668,0.184082,27.25,-7.3125,-2.5,0.371249,-1.28809,2.75251
365,49277124938,0.609375,0.034423800000000004,0.7910159999999999,0.040405300000000005,0.969727,0.057128899999999996,0.189453,26.9375,-6.875,-3.5625,0.386315,-1.29157,2.74635
366,49277148933,0.611023,0.0375977,0.789734,0.0383301,0.96875,0.05664059999999999,0.199707,22.9375,-7.4375,-5.25,0.40110500000000004,-1.295,2.7391900000000002
367,49277162549,0.612854,0.0408325,0.788269,0.036682099999999995,0.973145,0.0595703,0.191895,21.375,-8.3125,-7.0625,0.41901000000000005,-1.29863,2.7284200000000003
368,49277185034,0.614746,0.0438232,0.786682,0.035522500000000005,0.976074,0.06542970000000001,0.202148,18.9375,-10.4375,-8.75,0.43822799999999995,-1.30206,2.7151
369,49277208801,0.616699,0.046814,0.7849729999999999,0.0346069,0.988281,0.0629883,0.208984,18.1875,-12.0,-9.9375,0.45917399999999997,-1.30523,2.6994700000000003
370,49277222709,0.618958,0.0502319,0.7830199999999999,0.033813499999999996,0.995117,0.0913086,0.21435500000000002,19.5,-14.5625,-10.5625,0.484942,-1.3089600000000001,2.6797
371,49277246470,0.621216,0.0536499,0.781067,0.032958999999999995,1.0029299999999999,0.129883,0.21875,18.9375,-15.4375,-7.9375,0.511171,-1.31273,2.6597
372,49277271120,0.6235350000000001,0.057128899999999996,0.778992,0.0313721,0.9980469999999999,0.150391,0.208984,21.75,-15.75,-3.8125,0.53564,-1.31663,2.64217
373,49277298684,0.625916,0.061096199999999996,0.776917,0.0292358,0.984375,0.193359,0.201172,25.8125,-16.0,-0.125,0.561725,-1.32113,2.6251
374,49277306481,0.628052,0.0653687,0.7749020000000001,0.0267334,0.964844,0.21923800000000002,0.19433599999999998,27.4375,-14.875,1.9375,0.587494,-1.32467,2.6087700000000003
375,49277336380,0.629944,0.0698242,0.7730100000000001,0.0241699,0.955566,0.250977,0.183594,28.625,-12.875,3.6875,0.61341,-1.32742,2.59248
376,49277342477,0.631897,0.07397460000000002,0.771179,0.0219727,0.9404299999999999,0.26269499999999996,0.173828,25.25,-13.1875,3.875,0.640177,-1.33089,2.57535
377,49277367980,0.633545,0.07733150000000001,0.76947,0.020202599999999998,0.944824,0.23730500000000002,0.16406199999999999,20.875,-11.3125,2.8125,0.662721,-1.33302,2.55953
378,49277390393,0.634888,0.08062739999999999,0.768127,0.0183105,0.9477540000000001,0.209473,0.166992,21.0,-8.875,1.125,0.68294,-1.3352899999999999,2.54711
379,49277402690,0.635742,0.08435060000000001,0.767029,0.0159912,0.939941,0.192383,0.17040999999999998,24.6875,-6.4375,0.4375,0.700925,-1.33602,2.5373799999999997
380,49277426541,0.636414,0.0890503,0.7660520000000001,0.0134277,0.933105,0.205078,0.16308599999999998,29.875,-4.5625,-1.75,0.722694,-1.33643,2.52647
381,49277456426,0.636841,0.0940552,0.765076,0.0109863,0.9355469999999999,0.222656,0.162598,30.5625,-3.625,-2.4375,0.745117,-1.3352899999999999,2.51416
382,49277462480,0.637085,0.09887699999999999,0.764282,0.00848389,0.941406,0.21826199999999998,0.169434,29.875,-2.9375,-2.4375,0.765009,-1.33423,2.5046
383,49277485056,0.637207,0.10388199999999999,0.76355,0.00592041,0.9477540000000001,0.228027,0.170898,31.0,-2.1875,-2.6875,0.784891,-1.33295,2.4956099999999997
384,49277507551,0.637146,0.108948,0.762939,0.00341797,0.9501950000000001,0.23095700000000002,0.160645,30.9375,-0.25,-2.875,0.8040430000000001,-1.33132,2.48752
385,49277522418,0.6369020000000001,0.11456300000000001,0.762329,0.000671387,0.9667969999999999,0.25244099999999997,0.14746099999999998,34.0,1.375,-3.5625,0.824025,-1.3289799999999998,2.47952
386,49277546538,0.636414,0.12060499999999999,0.76178,-0.00213623,0.9746090000000001,0.28125,0.151367,35.4375,2.6875,-3.25,0.8443139999999999,-1.32576,2.47173
387,49277567603,0.635803,0.12646500000000002,0.761292,-0.00494385,0.9912110000000001,0.29199200000000003,0.131348,34.75,4.875,-2.5625,0.8625889999999999,-1.3224200000000002,2.4656
388,49277582678,0.634949,0.132019,0.761047,-0.00775146,0.9970700000000001,0.303711,0.126953,32.9375,7.0625,-1.4375,0.8773860000000001,-1.31913,2.4629
389,49277604999,0.63385,0.137207,0.761047,-0.0107422,0.999023,0.291016,0.12353499999999999,31.8125,9.375,-0.4375,0.8878729999999999,-1.31605,2.4645
390,49277627682,0.63269,0.142517,0.7609859999999999,-0.0137939,0.996582,0.28125,0.114258,32.875,10.5625,-1.625,0.89844,-1.31267,2.46597
391,49277642487,0.631287,0.14801,0.761047,-0.0167847,0.9970700000000001,0.28369099999999997,0.116211,33.375,11.3125,-3.125,0.908531,-1.30869,2.4681599999999997
392,49277664997,0.629822,0.153503,0.761108,-0.0194092,0.979492,0.312012,0.116211,31.8125,11.1875,-3.0,0.919359,-1.30424,2.46906
393,49277687717,0.628418,0.158447,0.7612300000000001,-0.0221558,0.965332,0.290039,0.13183599999999998,30.1875,10.4375,-2.0,0.9274959999999999,-1.30077,2.47245
394,49277702554,0.627197,0.163391,0.761047,-0.024780299999999998,0.964844,0.280273,0.12109400000000001,29.875,8.8125,-3.0,0.9372370000000001,-1.297,2.47317
395,49277725064,0.625916,0.168579,0.760925,-0.027465800000000002,0.961426,0.289551,0.13525399999999999,31.625,8.5625,-3.75,0.947783,-1.29354,2.4744099999999998
396,49277747580,0.624695,0.173767,0.76062,-0.0299683,0.949219,0.29834,0.116211,30.25,8.4375,-3.75,0.9592040000000001,-1.2896100000000001,2.47381
397,49277762545,0.623413,0.17865,0.760437,-0.0322876,0.9428709999999999,0.300781,0.118652,28.75,8.875,-3.75,0.969211,-1.28582,2.47422
398,49277785013,0.622009,0.183411,0.760376,-0.0345459,0.933594,0.29980500000000004,0.121582,27.625,9.625,-3.75,0.9780190000000001,-1.2820200000000002,2.47582
399,49277807493,0.620483,0.187805,0.760437,-0.036621100000000004,0.925781,0.297852,0.133301,25.75,9.375,-3.8125,0.984706,-1.27797,2.4784900000000003
400,49277822734,0.6191409999999999,0.191895,0.760437,-0.0386963,0.916992,0.29541,0.133301,24.375,8.5625,-2.9375,0.9911770000000001,-1.27471,2.48125
401,49277845159,0.617798,0.195801,0.760376,-0.0407104,0.9130860000000001,0.30127,0.138672,23.625,7.9375,-2.1875,0.9969110000000001,-1.27121,2.48381
402,49277867616,0.616577,0.199463,0.760315,-0.0427246,0.9165040000000001,0.29492199999999996,0.13378900000000002,22.5,7.8125,-1.6875,1.00235,-1.26841,2.48678
403,49277882569,0.615356,0.20306400000000002,0.760315,-0.0448608,0.9189450000000001,0.29492199999999996,0.137207,22.3125,7.9375,-1.5625,1.00734,-1.26614,2.4908200000000003
404,49277905199,0.613953,0.206604,0.760315,-0.046814,0.9121090000000001,0.304199,0.13623,21.875,8.5625,-1.5625,1.01129,-1.2627899999999999,2.4945
405,49277927635,0.612366,0.210083,0.760498,-0.0485229,0.919434,0.3125,0.15087899999999999,20.5625,9.0,-2.75,1.01447,-1.2590299999999999,2.49873
406,49277950769,0.611023,0.21337899999999999,0.76062,-0.0501099,0.930176,0.31054699999999996,0.143066,19.25,8.125,-2.8125,1.01867,-1.2561200000000001,2.50218
407,49277981535,0.60968,0.21649200000000002,0.760681,-0.05169680000000001,0.934082,0.303223,0.151367,18.875,7.8125,-2.8125,1.022,-1.25301,2.50559
408,49277987724,0.608459,0.21991,0.760559,-0.053405799999999996,0.933105,0.308105,0.151855,20.3125,6.3125,-3.0625,1.02732,-1.25014,2.50785
409,49278010703,0.607544,0.22345,0.760193,-0.054992700000000005,0.9360350000000001,0.327637,0.145508,21.0,4.75,-2.5625,1.03531,-1.24776,2.5077599999999998
410,49278025107,0.606689,0.226807,0.759705,-0.05664059999999999,0.940918,0.32666,0.15087899999999999,20.5625,3.4375,-1.8125,1.04261,-1.2453299999999998,2.5074799999999997
411,49278047470,0.606079,0.23028600000000002,0.759033,-0.058288599999999996,0.9394530000000001,0.338379,0.14111300000000002,20.625,2.5,-1.5625,1.05197,-1.2435,2.50579
412,49278072219,0.6054689999999999,0.233276,0.758484,-0.0597534,0.9389649999999999,0.324707,0.143555,18.5625,2.3125,-1.5625,1.05941,-1.24176,2.50487
413,49278101420,0.605042,0.23645,0.7577510000000001,-0.061218299999999996,0.932617,0.315918,0.14843800000000001,19.25,0.75,-2.375,1.0688,-1.24033,2.50252
414,49278107532,0.604614,0.239441,0.757019,-0.062439,0.941406,0.321777,0.146484,17.75,0.1875,-3.3125,1.07775,-1.23854,2.49959
415,49278133569,0.604309,0.24224899999999996,0.7563479999999999,-0.0634766,0.9379879999999999,0.319336,0.14599600000000001,16.5625,-0.25,-3.125,1.08696,-1.23726,2.49651
416,49278169581,0.604126,0.244812,0.7554930000000001,-0.0649414,0.933105,0.297852,0.152832,17.3125,-1.5,-1.875,1.09494,-1.23644,2.49415
417,49278172034,0.604065,0.24731399999999998,0.7546390000000001,-0.0664673,0.9379879999999999,0.289062,0.154297,17.3125,-2.0,-1.875,1.10333,-1.23631,2.49199
418,49278190622,0.604065,0.249756,0.7536010000000001,-0.0682983,0.9375,0.286621,0.16162100000000001,19.0,-3.0,-0.5625,1.11125,-1.2362600000000001,2.48989
419,49278205203,0.604248,0.252258,0.752441,-0.0704346,0.9287110000000001,0.284668,0.160645,20.25,-4.25,1.0,1.1201299999999998,-1.23716,2.48793
420,49278227631,0.604492,0.25500500000000004,0.751099,-0.0727539,0.929199,0.29492199999999996,0.151855,21.75,-4.5625,1.5,1.13026,-1.23812,2.48523
421,49278251450,0.604614,0.25793499999999997,0.749817,-0.0751343,0.920898,0.306641,0.14843800000000001,22.9375,-3.8125,2.0,1.1405399999999999,-1.239,2.48312
422,49278265207,0.6047359999999999,0.26055900000000004,0.7485350000000001,-0.0775757,0.9204100000000001,0.305176,0.138184,21.5,-3.0,3.375,1.14936,-1.2399200000000001,2.48155
423,49278295887,0.6047359999999999,0.262817,0.747498,-0.0797729,0.9233399999999999,0.307129,0.13183599999999998,18.6875,-1.8125,3.25,1.15625,-1.24069,2.4811099999999997
424,49278303988,0.604614,0.26452600000000004,0.746826,-0.08178710000000002,0.9355469999999999,0.297363,0.138184,15.5625,-0.1875,3.1875,1.16025,-1.24176,2.48292
425,49278325237,0.604309,0.265991,0.7462770000000001,-0.0838623,0.9379879999999999,0.285645,0.143066,14.8125,0.8125,2.9375,1.16188,-1.24245,2.48619
426,49278365912,0.6038819999999999,0.26763899999999996,0.745789,-0.0860596,0.9404299999999999,0.28320300000000004,0.13915999999999998,15.9375,1.5625,2.75,1.1634799999999998,-1.24315,2.4902900000000003
427,49278370169,0.603455,0.269592,0.745117,-0.08831789999999999,0.9501950000000001,0.295898,0.130859,17.5625,1.6875,2.5,1.1664,-1.24348,2.49326
428,49278396236,0.602905,0.271729,0.7445069999999999,-0.0906372,0.953125,0.311035,0.136719,18.3125,1.9375,2.9375,1.1694200000000001,-1.24374,2.49684
429,49278401550,0.602234,0.273926,0.744019,-0.0928955,0.965332,0.319824,0.129395,18.3125,3.3125,2.4375,1.17215,-1.24389,2.50107
430,49278425652,0.6011350000000001,0.27618400000000004,0.7437739999999999,-0.0951538,0.98877,0.34130900000000003,0.13037100000000001,17.9375,6.0625,2.3125,1.17255,-1.2430700000000001,2.50734
431,49278453291,0.599792,0.278442,0.7437739999999999,-0.09741210000000002,0.9912110000000001,0.335938,0.12646500000000002,17.8125,8.4375,1.375,1.17159,-1.24211,2.5154099999999997
432,49278484719,0.598206,0.280762,0.743835,-0.09967039999999999,0.98877,0.342285,0.12646500000000002,17.875,9.75,1.0625,1.16946,-1.2403600000000001,2.52413
433,49278487146,0.596497,0.283325,0.743958,-0.10180700000000001,0.9780270000000001,0.349609,0.12255899999999999,18.5,10.125,0.1875,1.16811,-1.2382799999999998,2.53267
434,49278516157,0.594788,0.285889,0.7441409999999999,-0.10345499999999999,0.98877,0.352051,0.114258,16.5,10.4375,-2.125,1.16763,-1.23566,2.53972
435,49278545379,0.592896,0.288391,0.744446,-0.104797,0.988281,0.352539,0.119629,15.125,10.9375,-3.875,1.1663299999999999,-1.23214,2.54662
436,49278547703,0.591003,0.290833,0.744873,-0.105774,0.9838870000000001,0.36084,0.114746,13.375,11.375,-5.0,1.16547,-1.22845,2.55285
437,49278582215,0.588928,0.293152,0.745483,-0.10650599999999999,0.96875,0.37206999999999996,0.115723,11.625,11.9375,-5.25,1.1634799999999998,-1.22415,2.55952
438,49278584497,0.58728,0.29504400000000003,0.7459720000000001,-0.107056,0.9467770000000001,0.352051,0.11328099999999999,9.1875,10.125,-5.0625,1.16231,-1.22076,2.56462
439,49278612912,0.585815,0.29675300000000004,0.7463989999999999,-0.107178,0.9394530000000001,0.343262,0.12060499999999999,7.1875,7.875,-6.0625,1.1619700000000002,-1.21715,2.56773
440,49278625072,0.584595,0.298584,0.746704,-0.106995,0.9272459999999999,0.344727,0.12451199999999998,6.875,5.5,-7.25,1.16405,-1.21375,2.5686299999999997
441,49278643017,0.583557,0.300354,0.746887,-0.10650599999999999,0.9121090000000001,0.34130900000000003,0.14013699999999998,6.1875,2.8125,-8.4375,1.16724,-1.2101899999999999,2.5676400000000004
442,49278671442,0.582825,0.302307,0.746704,-0.105957,0.903809,0.337891,0.137207,7.125,0.1875,-8.625,1.17289,-1.2067299999999999,2.56403
443,49278702274,0.582336,0.30426,0.7463380000000001,-0.10553,0.890625,0.334961,0.144531,8.0,-2.0625,-7.8125,1.1796200000000001,-1.20393,2.55967
444,49278704550,0.5820310000000001,0.30633499999999997,0.745789,-0.10516400000000001,0.878418,0.33300799999999997,0.129883,8.625,-2.75,-7.375,1.18773,-1.2014799999999999,2.5543299999999998
445,49278733024,0.5820310000000001,0.30847199999999997,0.744995,-0.10461400000000001,0.879395,0.355469,0.114258,8.0,-4.25,-6.875,1.1978799999999998,-1.1992399999999999,2.54676
446,49278762089,0.5820310000000001,0.309753,0.744568,-0.10375999999999999,0.9003909999999999,0.35791,0.100586,2.4375,-2.0,-5.75,1.2045700000000001,-1.19715,2.5407599999999997
447,49278764600,0.5817260000000001,0.310425,0.74469,-0.102966,0.9042969999999999,0.359863,0.0991211,-0.8125,1.6875,-4.5,1.2069,-1.19533,2.53867
448,49278793110,0.58136,0.310608,0.744934,-0.10241700000000001,0.895508,0.35693400000000003,0.0932617,-2.0625,3.3125,-1.875,1.20641,-1.19379,2.53845
449,49278822087,0.580994,0.310425,0.7453609999999999,-0.102173,0.8935549999999999,0.349121,0.09814450000000001,-3.125,4.6875,-0.3125,1.20402,-1.19315,2.5404299999999997
450,49278824565,0.580627,0.310364,0.745667,-0.102112,0.894043,0.358398,0.09570310000000001,-1.875,4.5625,0.8125,1.20191,-1.19249,2.54231
451,49278851486,0.580383,0.310181,0.7459720000000001,-0.10180700000000001,0.908691,0.371582,0.09082029999999999,-3.4375,4.25,1.0,1.20022,-1.19185,2.5432900000000003
452,49278889727,0.580322,0.309692,0.7462770000000001,-0.10144,0.926758,0.38623,0.08691410000000001,-5.3125,3.8125,2.625,1.19824,-1.1916799999999999,2.54402
453,49278892135,0.580505,0.30847199999999997,0.746704,-0.101013,0.945312,0.390137,0.09082029999999999,-9.125,3.5625,5.0625,1.19442,-1.19238,2.54535
454,49278920467,0.580872,0.30633499999999997,0.747375,-0.10040299999999999,0.960449,0.387207,0.104492,-13.8125,3.375,6.9375,1.18779,-1.19379,2.54773
455,49278941540,0.581238,0.30365,0.7482300000000001,-0.100037,0.9501950000000001,0.391602,0.128418,-15.3125,2.8125,10.6875,1.1784299999999999,-1.19592,2.55234
456,49278947599,0.5821529999999999,0.300293,0.748962,-0.0997314,0.941406,0.396973,0.131348,-18.0625,0.8125,14.875,1.16887,-1.19967,2.55646
457,49278973108,0.583313,0.295837,0.7498779999999999,-0.09936519999999999,0.9550780000000001,0.394531,0.132324,-23.5625,0.875,18.5625,1.1556799999999998,-1.20438,2.56213
458,49279001619,0.58429,0.290161,0.751343,-0.0993042,0.976074,0.386719,0.137207,-28.75,5.0,23.125,1.13545,-1.21005,2.57346
459,49279007515,0.584839,0.282715,0.7536010000000001,-0.0999146,0.976074,0.345215,0.160645,-34.375,10.375,28.5,1.1034,-1.21671,2.59453
460,49279031544,0.584839,0.274048,0.756653,-0.10119600000000001,1.02295,0.340332,0.168945,-38.5,18.25,34.25,1.06091,-1.22411,2.6257900000000003
461,49279053933,0.583557,0.262878,0.761353,-0.102905,1.05469,0.339355,0.194824,-49.6875,31.0625,41.6875,0.9979610000000001,-1.2306,2.6743200000000003
462,49279068987,0.580505,0.250244,0.767517,-0.10583499999999998,1.05664,0.338379,0.232422,-53.4375,44.9375,50.125,0.915545,-1.23475,2.7421599999999997
463,49279101201,0.575806,0.23706100000000002,0.774658,-0.10986300000000002,1.04053,0.342285,0.254395,-53.25,57.75,55.4375,0.8203360000000001,-1.23514,2.8239
464,49279122730,0.570068,0.222473,0.782654,-0.11370799999999999,1.01025,0.336914,0.254395,-61.3125,67.375,59.125,0.7163930000000001,-1.2313100000000001,2.91224
465,49279127487,0.563049,0.20904499999999998,0.791077,-0.115784,0.9785159999999999,0.380371,0.249023,-63.375,73.0625,50.4375,0.623553,-1.2204,2.9887599999999996
466,49279153146,0.555908,0.19409200000000001,0.800049,-0.11444100000000001,0.942383,0.358398,0.249023,-82.625,73.8125,39.0625,0.53892,-1.20526,3.04993
467,49279183001,0.548706,0.17840599999999998,0.8091430000000001,-0.110901,0.9472659999999999,0.282715,0.24706999999999998,-92.0625,74.3125,26.9375,0.46344300000000005,-1.18776,3.09789
468,49279212257,0.5413819999999999,0.163452,0.81781,-0.10638399999999999,0.9863280000000001,0.20849600000000001,0.266113,-90.25,73.9375,15.8125,0.399508,-1.16878,3.1339799999999998
469,49279214488,0.531738,0.15155,0.826965,-0.10192899999999999,0.999023,0.205566,0.312012,-75.0,84.0625,4.5625,0.350941,-1.14414,-3.12368
470,49279234010,0.520508,0.14032,0.836792,-0.0950928,0.9472659999999999,0.224609,0.34081999999999996,-79.125,90.5,-8.625,0.313682,-1.11475,-3.1118799999999998
471,49279250604,0.508911,0.130676,0.8461299999999999,-0.08874510000000001,0.913574,0.162598,0.368652,-68.25,89.3125,-14.3125,0.284172,-1.08522,-3.1047599999999997
472,49279263977,0.49749799999999994,0.12213099999999999,0.854492,-0.0860596,0.936523,0.00683594,0.389648,-46.6875,89.375,-8.625,0.253481,-1.05772,-3.0895
473,49279286597,0.482361,0.117493,0.863525,-0.0877686,0.901855,-0.12793,0.381348,-15.125,105.5,2.5,0.229106,-1.02302,-3.06805
474,49279307538,0.469604,0.11731,0.8694459999999999,-0.0986938,0.801758,-0.183594,0.29541,40.5,99.5625,26.0,0.206445,-0.996817,-3.02818
475,49279323979,0.46380600000000005,0.12219200000000001,0.8695069999999999,-0.11755399999999999,0.523926,-0.149902,0.20849600000000001,85.25,47.0,64.3125,0.189313,-0.9886659999999999,-2.9750900000000002
476,49279346509,0.470703,0.13281199999999999,0.86145,-0.136353,0.145508,0.015625,0.25,104.43799999999999,-52.1875,75.625,0.19027,-1.01068,-2.93312
477,49279370412,0.48468,0.146484,0.850525,-0.142029,0.10497999999999999,0.38916,0.433105,77.5,-110.81200000000001,15.75,0.22496,-1.0473,-2.9409400000000003
478,49279384716,0.481995,0.16076700000000002,0.851685,-0.127869,1.32861,0.917969,0.8217770000000001,8.3125,-11.5625,-69.3125,0.301818,-1.03946,-3.0171799999999998
479,49279405884,0.457642,0.161743,0.866821,-0.113953,1.08984,0.345215,1.2373,-29.25,139.312,-102.75,0.321473,-0.979554,-3.0526299999999997
480,49279428412,0.45098900000000003,0.140076,0.874817,-0.10790999999999999,0.34179699999999996,0.36084,0.708008,-128.062,55.6875,19.8125,0.260639,-0.960183,-3.03242
481,49279445297,0.45544399999999996,0.10437,0.877991,-0.10363800000000001,0.502441,0.241211,0.661621,-196.875,0.0,75.3125,0.156461,-0.963835,-2.9885599999999997
482,49279465879,0.461487,0.0737915,0.878784,-0.0960083,0.773926,-0.563477,0.286621,-172.125,-11.4375,35.875,0.0728162,-0.970669,-2.96235
483,49279488372,0.469238,0.053283699999999996,0.874756,-0.10833699999999999,0.9467770000000001,-0.8842770000000001,0.348145,-39.1875,-16.75,70.4375,-0.0152558,-0.983574,-2.8869599999999997
484,49279503267,0.468262,0.0637207,0.8709110000000001,-0.134827,0.957031,-0.29443400000000003,0.308594,128.0,1.125,103.18799999999999,-0.027603899999999997,-0.984166,-2.81961
485,49279525800,0.46643100000000004,0.0674438,0.867188,-0.160645,0.754883,0.13037100000000001,0.334473,89.1875,8.125,123.31200000000001,-0.0591014,-0.980246,-2.74365
486,49279548345,0.464478,0.055664099999999994,0.865662,-0.178223,0.595703,0.0610352,0.515137,-10.1875,21.4375,120.93799999999999,-0.122425,-0.9684379999999999,-2.67102
487,49279563317,0.459412,0.0410156,0.866394,-0.191162,0.49853500000000006,0.036621100000000004,0.6621090000000001,-35.0,41.75,102.25,-0.180047,-0.947133,-2.6147299999999998
488,49279585913,0.45166000000000006,0.031066900000000005,0.870483,-0.193054,0.5981449999999999,0.225098,0.718262,-52.0,45.125,47.1875,-0.201121,-0.924501,-2.6046099999999996
489,49279609562,0.448975,0.0183105,0.8726200000000001,-0.19128399999999998,0.5722659999999999,0.0795898,0.7441409999999999,-76.25,15.5,31.9375,-0.230345,-0.911744,-2.5966400000000003
490,49279623170,0.45257600000000003,0.00860596,0.870239,-0.194214,0.8598629999999999,-0.034668,0.687012,-51.125,-15.9375,50.375,-0.266016,-0.912509,-2.5712099999999998
491,49279647589,0.45874,0.000305176,0.865417,-0.201294,0.9536129999999999,-0.115723,0.616699,-32.9375,-28.9375,68.25,-0.307882,-0.9175690000000001,-2.5314099999999997
492,49279676287,0.462708,-0.00335693,0.861023,-0.21087600000000004,0.995605,-0.17040999999999998,0.5952149999999999,0.875,-20.625,66.875,-0.33793,-0.9196469999999999,-2.4925599999999997
493,49279683275,0.463135,-0.00335693,0.8585209999999999,-0.219788,0.999023,-0.0776367,0.617676,16.6875,-3.1875,57.4375,-0.351419,-0.9169430000000001,-2.46533
494,49279707152,0.461182,-0.00537109,0.8581540000000001,-0.22534200000000001,0.9375,-0.00292969,0.669922,-2.75,11.5,47.25,-0.361215,-0.909358,-2.44984
495,49279728427,0.458862,-0.011962899999999999,0.858643,-0.22790500000000002,0.8735350000000001,-0.07470700000000001,0.710449,-31.0625,17.5625,39.625,-0.377905,-0.898742,-2.4386200000000002
496,49279750907,0.45605500000000004,-0.020202599999999998,0.859497,-0.22979699999999997,0.889648,-0.160156,0.726562,-37.875,23.625,36.5,-0.396723,-0.886194,-2.4287799999999997
497,49279773365,0.45233199999999996,-0.0274048,0.860535,-0.232544,0.867188,-0.18603499999999998,0.710938,-28.5625,28.0,37.1875,-0.41201899999999997,-0.8722040000000001,-2.41949
498,49279788400,0.447876,-0.0339355,0.861633,-0.236206,0.8457030000000001,-0.172852,0.680664,-22.125,31.75,41.1875,-0.42512700000000003,-0.856842,-2.40988
499,49279804673,0.44281000000000004,-0.0405273,0.8628540000000001,-0.240112,0.8061520000000001,-0.15625,0.6621090000000001,-22.0,36.1875,43.5,-0.437254,-0.840083,-2.40079
500,49279850177,0.43688999999999995,-0.0485229,0.864502,-0.24359099999999997,0.779297,-0.160156,0.669434,-29.1875,42.5,44.6875,-0.450482,-0.8208780000000001,-2.39342
501,49279852578,0.429443,-0.058227499999999995,0.866699,-0.246948,0.765625,-0.208008,0.69043,-34.875,53.8125,46.375,-0.464729,-0.7975369999999999,-2.38763
502,49279873576,0.420288,-0.0701294,0.8695069999999999,-0.24969499999999997,0.753418,-0.240723,0.716797,-44.5,66.875,47.75,-0.480342,-0.769623,-2.3845099999999997
503,49279885727,0.40936300000000003,-0.0852051,0.8728030000000001,-0.251526,0.7719729999999999,-0.35449200000000003,0.745117,-56.0,83.375,47.6875,-0.499279,-0.736533,-2.38414
504,49279908429,0.394592,-0.10022,0.8775629999999999,-0.253235,0.708008,-0.42822299999999996,0.730957,-47.4375,106.0,44.25,-0.512063,-0.6968449999999999,-2.39011
505,49279923303,0.378784,-0.115845,0.8832399999999999,-0.250854,0.536621,-0.444824,0.676758,-56.9375,115.56200000000001,22.8125,-0.521953,-0.657316,-2.4064
506,49279945872,0.364502,-0.13147,0.888855,-0.24432399999999999,0.45556599999999997,-0.523926,0.6503909999999999,-67.375,110.06200000000001,0.25,-0.531974,-0.623323,-2.42988
507,49279968141,0.353027,-0.148926,0.8931879999999999,-0.235229,0.42871099999999995,-0.616699,0.5844729999999999,-75.9375,96.9375,-18.6875,-0.549005,-0.595082,-2.4542
508,49279990453,0.343323,-0.166199,0.89679,-0.22418200000000002,0.413574,-0.701172,0.560547,-77.875,88.5,-32.25,-0.567565,-0.571934,-2.4805599999999997
509,49280021277,0.334045,-0.175903,0.901367,-0.21209699999999998,0.400391,-0.664551,0.564941,-42.5625,79.875,-51.9375,-0.570546,-0.555747,-2.5124400000000002
510,49280028108,0.329651,-0.186646,0.9033200000000001,-0.20105,0.607422,-0.8374020000000001,0.555664,-45.375,60.4375,-45.375,-0.582573,-0.547449,-2.53554
511,49280059929,0.322327,-0.192932,0.905884,-0.19531199999999999,0.652832,-1.0083,0.520508,0.9375,70.25,-27.875,-0.585052,-0.533578,-2.55252
512,49280067062,0.313416,-0.190796,0.909424,-0.19561800000000001,0.671875,-0.98877,0.421387,62.6875,70.0,-9.0,-0.57123,-0.518306,-2.56241
513,49280088157,0.309448,-0.18524200000000002,0.909668,-0.20581100000000002,0.321289,-0.963867,0.32666,91.0625,9.8125,24.75,-0.560525,-0.508355,-2.54724
514,49280118808,0.317627,-0.168152,0.906616,-0.220886,-0.179199,-0.716797,0.423828,109.0,-90.125,35.8125,-0.540629,-0.525501,-2.51475
515,49280125705,0.33618200000000004,-0.150574,0.901733,-0.226257,-0.255859,-0.351074,0.45800799999999997,74.0625,-140.188,-21.3125,-0.526695,-0.5682470000000001,-2.4927799999999998
516,49280150469,0.34173600000000004,-0.135376,0.905701,-0.21099899999999996,1.40283,0.337891,0.701172,36.4375,-16.625,-105.31200000000001,-0.490188,-0.596672,-2.53021
517,49280187532,0.332092,-0.138733,0.9150389999999999,-0.182068,0.765137,-0.31738299999999997,1.26074,-59.375,92.6875,-145.375,-0.46833400000000003,-0.591055,-2.60376
518,49280225909,0.33313000000000004,-0.15826400000000002,0.9151610000000001,-0.162537,0.15332,-0.165527,0.7128909999999999,-143.438,25.875,-66.625,-0.5002989999999999,-0.59232,-2.6344
519,49280239671,0.343018,-0.187378,0.9088129999999999,-0.14562999999999998,0.318848,-0.397949,0.577148,-199.625,-23.6875,-37.6875,-0.5652550000000001,-0.605171,-2.64292
520,49280253422,0.371582,-0.220886,0.893616,-0.12060499999999999,0.703613,-1.22949,0.523438,-17.625,-57.5625,-51.375,-0.658355,-0.657099,-2.64137
521,49280285813,0.379822,-0.198853,0.894287,-0.127747,0.463379,-0.654297,0.425781,126.81200000000001,-64.6875,-24.625,-0.621296,-0.679667,-2.63163
522,49280338507,0.390381,-0.185425,0.8924559999999999,-0.128967,0.391113,-0.19433599999999998,0.479004,55.5625,-73.9375,-30.875,-0.603351,-0.706227,-2.62605
523,49280561112,0.402405,-0.190125,0.88739,-0.11993399999999999,0.49853500000000006,-0.381348,0.5952149999999999,-60.3125,-66.8125,-47.375,-0.623133,-0.732291,-2.62708
524,49280730091,0.415771,-0.210693,0.8788450000000001,-0.101379,0.554688,-0.7797850000000001,0.781738,-62.25,-28.5,-43.9375,-0.6771590000000001,-0.758836,-2.6327599999999998
525,49280758609,0.356079,-0.23388699999999998,0.9046629999999999,-0.00201416,0.649414,-0.439453,0.7543949999999999,15.875,8.9375,-19.75,-0.587936,-0.698828,-2.9173400000000003
526,49280765000,0.355103,-0.231384,0.905701,6.10352e-05,0.6777340000000001,-0.371094,0.6914060000000001,6.4375,9.0,-11.4375,-0.579238,-0.69875,-2.92538
527,49280785847,0.354553,-0.22869899999999999,0.906616,0.00195312,0.689453,-0.27636700000000003,0.609863,5.875,10.8125,-6.875,-0.570583,-0.699429,-2.93276
528,49280816270,0.353821,-0.22583000000000003,0.907593,0.0012207000000000001,0.7016600000000001,-0.31738299999999997,0.5581050000000001,16.3125,11.5,4.625,-0.563354,-0.69815,-2.93434
529,49280856542,0.351562,-0.22192399999999998,0.909424,-0.00366211,0.633301,-0.359863,0.539551,33.5625,14.0625,22.25,-0.555603,-0.691656,-2.92868
530,49280893427,0.348389,-0.215881,0.912048,-0.00921631,0.616699,-0.344727,0.543945,46.875,19.125,22.9375,-0.5423939999999999,-0.6835060000000001,-2.92413
531,49280982754,0.34576399999999996,-0.21093800000000001,0.914185,-0.012817400000000001,0.611328,-0.35644499999999996,0.5527340000000001,37.0625,17.75,13.5,-0.530946,-0.6774100000000001,-2.92253
532,49280985169,0.34686300000000003,-0.203125,0.9154049999999999,-0.0189209,0.672363,-0.336914,0.5527340000000001,29.5,-4.5,10.875,-0.5171789999999999,-0.67815,-2.91414
533,49281080135,0.35022,-0.198853,0.9150389999999999,-0.0217896,0.710938,-0.32617199999999996,0.5561520000000001,27.9375,-12.875,7.1875,-0.511432,-0.6844720000000001,-2.90821
534,49281116061,0.362854,-0.162659,0.917358,-0.0157471,0.775879,0.011230500000000001,0.7246090000000001,32.1875,14.875,-40.75,-0.425489,-0.721633,-2.94455
535,49281150148,0.38745100000000005,-0.142578,0.910645,0.013855000000000001,0.794434,-0.0961914,0.758301,28.25,-36.25,-67.1875,-0.361129,-0.7889470000000001,-3.02027
536,49281200241,0.43158,-0.11834700000000001,0.8928219999999999,0.049987800000000006,0.5297850000000001,-0.144531,0.8266600000000001,4.8125,-101.625,-51.0,-0.273516,-0.8986379999999999,-3.12088
537,49281206501,0.447144,-0.115845,0.885376,0.052368200000000004,0.52832,-0.319824,0.8168949999999999,7.125,-101.75,-33.875,-0.269415,-0.933846,-3.12332
538,49281260909,0.46283,-0.10778800000000001,0.87854,0.047485400000000004,0.47802700000000004,-0.29931599999999997,0.829102,54.25,-105.375,-11.6875,-0.259262,-0.967492,-3.11278
539,49281426703,0.47943100000000005,-0.09826660000000001,0.871338,0.034851099999999996,0.458984,-0.36084,0.768066,83.1875,-114.875,21.875,-0.258633,-1.0016200000000002,-3.0794
540,49281440678,0.5155029999999999,-0.0783081,0.8531489999999999,-0.0137939,0.47168000000000004,-0.512207,0.62793,130.062,-137.562,92.0,-0.313355,-1.0705,-2.92236
541,49281587931,0.521729,0.0344849,0.817444,-0.241577,1.2002,-0.5639649999999999,0.260254,99.9375,62.375,-28.0,-0.407609,-1.05445,-2.3273099999999998
542,49281599326,0.511169,0.045105,0.821716,-0.24774200000000002,1.37109,-0.547363,0.340332,96.0,74.125,-26.6875,-0.361815,-1.04003,-2.34707
543,49281613428,0.50354,0.048645,0.8245239999999999,-0.253357,1.46729,-0.47021499999999994,0.350098,55.125,70.3125,-0.125,-0.344094,-1.02557,-2.3502
544,49281615060,0.532471,0.0778809,0.745728,-0.392761,0.564453,-0.590332,0.0991211,100.375,-85.1875,133.875,-0.622648,-1.02619,-1.81322
545,49281628604,0.542419,0.0824585,0.7249760000000001,-0.416321,0.52832,-0.675293,0.0698242,82.6875,-103.0,130.938,-0.695396,-1.0258200000000002,-1.69612
546,49281655741,0.550049,0.0905151,0.704163,-0.439758,0.655762,-0.658691,0.0942383,101.56200000000001,-101.625,120.25,-0.7551899999999999,-1.0241200000000001,-1.58633
547,49281679649,0.556091,0.100952,0.6828,-0.46295200000000003,0.7285159999999999,-0.491699,0.13037100000000001,113.625,-103.375,115.31200000000001,-0.806913,-1.02146,-1.4802899999999999
548,49281688186,0.56134,0.111572,0.663574,-0.48175,0.791504,-0.322754,0.23144499999999998,99.6875,-93.875,96.375,-0.850216,-1.02071,-1.3891200000000001
549,49281719180,0.5578,0.12066700000000001,0.655151,-0.49499499999999996,1.02881,-0.18896500000000002,0.49755900000000003,83.3125,-35.125,59.1875,-0.846598,-1.01664,-1.35544
550,49281741247,0.547058,0.12262,0.657471,-0.5033569999999999,0.980957,-0.437988,0.45947299999999996,61.4375,46.3125,12.0625,-0.809195,-1.00245,-1.37368
551,49281815119,0.535706,0.124146,0.659485,-0.512451,0.7094729999999999,-0.449219,0.417969,66.5,46.25,8.5625,-0.772698,-0.985985,-1.38983
552,49281845992,0.52478,0.131348,0.66095,-0.5200199999999999,0.7172850000000001,-0.303711,0.370605,80.875,29.4375,-4.4375,-0.731384,-0.97967,-1.4053
553,49281860263,0.510315,0.113159,0.6950069999999999,-0.493713,0.9912110000000001,-0.33300799999999997,0.545898,-103.125,97.375,-60.5,-0.6525340000000001,-0.963303,-1.5562200000000002
554,49281867232,0.49688699999999997,0.0883789,0.721008,-0.474792,1.06787,-0.561523,0.609375,-27.9375,92.25,-36.8125,-0.61207,-0.928034,-1.66323
555,49281904697,0.486206,0.0872192,0.72522,-0.47961400000000004,1.03662,-0.480469,0.633301,37.875,64.0,4.5,-0.586036,-0.908977,-1.6802099999999998
556,49281906973,0.478821,0.08843989999999999,0.72345,-0.48938000000000004,0.929199,-0.39355500000000004,0.571289,54.125,30.3125,38.9375,-0.57491,-0.893655,-1.67057
557,49281951035,0.475037,0.08770750000000001,0.717773,-0.5014649999999999,0.859375,-0.431641,0.5639649999999999,45.875,10.0625,64.0,-0.5814699999999999,-0.8786870000000001,-1.6426
558,49281964631,0.47009300000000004,0.08752439999999999,0.710754,-0.515808,0.72168,-0.413574,0.5717770000000001,57.375,5.9375,73.25,-0.586388,-0.861058,-1.6102
559,49281966998,0.466675,0.0883789,0.703613,-0.528442,0.532227,-0.41308599999999995,0.387207,56.9375,-1.5,60.5,-0.591753,-0.848249,-1.57952
560,49281986476,0.47009300000000004,0.0881958,0.694641,-0.537292,0.5874020000000001,-0.575195,0.29443400000000003,30.9375,-25.5,50.875,-0.614302,-0.844841,-1.54158
561,49282008231,0.474915,0.09069819999999999,0.682373,-0.548279,0.788574,-0.676758,0.28369099999999997,48.375,-39.5625,63.75,-0.640666,-0.8444309999999999,-1.492
562,49282023902,0.47729499999999997,0.0964966,0.669434,-0.5610350000000001,0.7773439999999999,-0.625488,0.21875,73.3125,-38.3125,65.6875,-0.658003,-0.8440049999999999,-1.44239
563,49282046455,0.476807,0.10394300000000001,0.658997,-0.572327,0.7719729999999999,-0.473145,0.275879,76.0,-30.5625,53.75,-0.662776,-0.84415,-1.4047
564,49282069592,0.476501,0.10583499999999998,0.651489,-0.58075,0.736816,-0.451172,0.345215,42.125,-11.4375,49.125,-0.670959,-0.838735,-1.37699
565,49282090766,0.47753900000000005,0.101624,0.645874,-0.586914,0.679688,-0.5356449999999999,0.405273,8.4375,2.5,46.5625,-0.687052,-0.827362,-1.3548200000000001
566,49282106456,0.478699,0.0946655,0.641418,-0.5919800000000001,0.672852,-0.583008,0.44043000000000004,-5.5625,12.5625,44.625,-0.70462,-0.812738,-1.33704
567,49282129632,0.47821,0.0873413,0.6372680000000001,-0.5979,0.680176,-0.5893550000000001,0.512695,-1.625,17.75,48.1875,-0.717834,-0.795108,-1.32181
568,49282150650,0.475891,0.07916260000000001,0.633728,-0.604675,0.709961,-0.579102,0.569336,1.125,28.75,53.4375,-0.726698,-0.773867,-1.31024
569,49282166545,0.47168000000000004,0.0719604,0.630737,-0.612,0.717773,-0.524414,0.577637,10.0625,35.25,54.0625,-0.7290979999999999,-0.751987,-1.30197
570,49282189777,0.466125,0.065979,0.627563,-0.620056,0.718262,-0.46728500000000006,0.585449,18.75,36.25,57.0625,-0.726993,-0.7299979999999999,-1.294
571,49282204049,0.46020500000000003,0.0601196,0.62439,-0.628296,0.697754,-0.47168000000000004,0.5766600000000001,21.75,38.25,57.5625,-0.72395,-0.707901,-1.28657
572,49282226497,0.45373500000000005,0.055175800000000004,0.6213989999999999,-0.636292,0.6655270000000001,-0.48583999999999994,0.584961,26.5,36.9375,52.4375,-0.718298,-0.686866,-1.28005
573,49282250124,0.447205,0.051574699999999994,0.618347,-0.644165,0.6518550000000001,-0.48339799999999994,0.585449,31.625,32.8125,48.875,-0.711166,-0.6681060000000001,-1.27346
574,49282264031,0.440308,0.0512695,0.6149899999999999,-0.6521,0.611816,-0.38769499999999996,0.577637,41.25,20.4375,44.5625,-0.699921,-0.654088,-1.26577
575,49282286523,0.434692,0.052246100000000004,0.61145,-0.659058,0.5981449999999999,-0.37206999999999996,0.557129,39.375,11.375,39.375,-0.690154,-0.644066,-1.25701
576,49282309690,0.431824,0.0535278,0.607483,-0.664551,0.561523,-0.390625,0.49316400000000005,29.5625,1.0,33.8125,-0.6862550000000001,-0.638255,-1.2461200000000001
577,49282330888,0.431458,0.0565186,0.6028439999999999,-0.668762,0.547363,-0.44091800000000003,0.46875,26.1875,-16.125,25.9375,-0.686312,-0.638259,-1.23221
578,49282346524,0.431885,0.0625,0.598938,-0.671387,0.625,-0.44970699999999997,0.53125,27.1875,-28.625,12.6875,-0.684265,-0.645087,-1.21977
579,49282369679,0.433594,0.0684814,0.596497,-0.671936,0.706543,-0.48095699999999997,0.526367,18.375,-26.625,1.3125,-0.683905,-0.655183,-1.2112399999999999
580,49282398196,0.43237299999999995,0.0755005,0.596497,-0.671936,0.742676,-0.425781,0.658691,24.3125,-19.375,-10.75,-0.673964,-0.6652819999999999,-1.2109999999999999
581,49282431155,0.431213,0.08026119999999999,0.596191,-0.672363,0.697754,-0.43603500000000006,0.607422,19.875,-11.5,-4.9375,-0.666743,-0.671423,-1.21018
582,49282443829,0.429993,0.0870972,0.595093,-0.673279,0.6733399999999999,-0.29492199999999996,0.645508,22.0,-23.9375,-0.75,-0.65798,-0.680334,-1.2070299999999998
583,49282450656,0.43084700000000004,0.0930176,0.5958859999999999,-0.671326,0.7246090000000001,-0.185059,0.673828,-2.6875,-23.8125,-8.5,-0.6529010000000001,-0.692368,-1.2089
584,49282474799,0.43518100000000004,0.09185789999999999,0.597229,-0.667419,0.686523,-0.27880900000000003,0.678711,-41.5625,-10.5,-3.1875,-0.662195,-0.697653,-1.21106
585,49282489668,0.44067399999999995,0.0899048,0.597534,-0.663879,0.6469729999999999,-0.37695300000000004,0.720703,-45.375,-18.0625,-0.8125,-0.676079,-0.702342,-1.20965
586,49282510889,0.444763,0.09014889999999999,0.59668,-0.6618649999999999,0.6518550000000001,-0.45068400000000003,0.7905270000000001,-27.625,-27.5,-0.8125,-0.685708,-0.7077100000000001,-1.20516
587,49282526656,0.447144,0.0934448,0.595642,-0.660706,0.7094729999999999,-0.40429699999999996,0.817383,-11.375,-32.8125,-1.9375,-0.68862,-0.715711,-1.20069
588,49282549654,0.448975,0.097229,0.595459,-0.659058,0.807129,-0.272461,0.894531,-17.3125,-30.625,0.625,-0.688987,-0.7246199999999999,-1.19907
589,49282570870,0.451172,0.0980835,0.596802,-0.656189,0.8496090000000001,-0.209473,0.941895,-36.5625,-18.9375,2.9375,-0.6916399999999999,-0.7305010000000001,-1.2021
590,49282586686,0.45428500000000005,0.09564210000000001,0.5973510000000001,-0.65387,0.8081050000000001,-0.317871,0.930176,-45.25,-12.6875,10.5,-0.700613,-0.731262,-1.20235
591,49282610130,0.455322,0.0936279,0.596375,-0.654358,0.777832,-0.351074,0.891602,-25.5,-9.1875,21.125,-0.706083,-0.728321,-1.1989299999999998
592,49282638582,0.45373500000000005,0.09161380000000001,0.59436,-0.657593,0.7719729999999999,-0.429199,0.860352,-3.75,0.25,29.8125,-0.706624,-0.7206239999999999,-1.19367
593,49282647964,0.44732700000000003,0.09106449999999999,0.592224,-0.6640010000000001,0.775879,-0.421875,0.807129,29.6875,16.5,35.1875,-0.69492,-0.708597,-1.19035
594,49282669724,0.435974,0.0913086,0.590454,-0.672974,0.710938,-0.277344,0.752441,54.25,33.9375,42.0,-0.6711199999999999,-0.691563,-1.19028
595,49282682701,0.426331,0.0892944,0.591064,-0.678894,0.651367,-0.146484,0.629883,30.5,45.5625,33.25,-0.651605,-0.6754140000000001,-1.1965
596,49282705845,0.422241,0.0814819,0.5919800000000001,-0.6816409999999999,0.668457,-0.258789,0.604004,-13.3125,51.4375,34.25,-0.650123,-0.657323,-1.20137
597,49282720174,0.420105,0.0715332,0.591919,-0.6841430000000001,0.698242,-0.43994099999999997,0.550293,-18.5,55.375,37.1875,-0.655993,-0.637532,-1.20288
598,49282742542,0.41680900000000004,0.0639648,0.592834,-0.686096,0.701172,-0.38769499999999996,0.513672,-8.875,54.5625,28.4375,-0.656126,-0.621149,-1.20759
599,49282774050,0.414124,0.0561523,0.596069,-0.685608,0.6918949999999999,-0.285645,0.46972700000000006,-21.8125,60.375,16.1875,-0.656058,-0.607346,-1.2188299999999999
600,49282780067,0.41272,0.044616699999999995,0.601807,-0.682251,0.684082,-0.35742199999999996,0.5014649999999999,-45.0625,74.4375,3.5625,-0.6608,-0.591533,-1.23735
601,49282802566,0.40863,0.0267334,0.6096189999999999,-0.678711,0.638184,-0.515137,0.586426,-55.6875,103.43799999999999,-0.8125,-0.66587,-0.563924,-1.2639200000000002
602,49282825812,0.402832,0.00646973,0.6195069999999999,-0.673706,0.5014649999999999,-0.547852,0.664062,-61.125,121.75,-9.5625,-0.669728,-0.532666,-1.2977100000000001
603,49282840252,0.396667,-0.0100098,0.63092,-0.666687,0.421387,-0.37011700000000003,0.632324,-52.875,111.0,-30.4375,-0.668883,-0.5088630000000001,-1.3353899999999999
604,49282862773,0.394592,-0.0247192,0.638977,-0.6598510000000001,0.540039,-0.573242,0.702148,-59.8125,85.1875,-19.8125,-0.676899,-0.49116000000000004,-1.36268
605,49282885916,0.39117399999999997,-0.0332031,0.639954,-0.660522,0.557129,-0.729004,0.666504,-7.375,52.25,17.0,-0.679874,-0.47439899999999996,-1.3685100000000001
606,49282900253,0.38763400000000003,-0.0325928,0.631653,-0.670532,0.308594,-0.710938,0.494141,51.6875,-9.8125,57.3125,-0.677475,-0.46228199999999997,-1.34553
607,49282922611,0.38739,-0.0171509,0.615967,-0.6857300000000001,-0.044433600000000004,-0.6186520000000001,0.439453,91.3125,-100.06200000000001,75.375,-0.66861,-0.47093199999999996,-1.29744
608,49282946320,0.391663,0.00665283,0.598511,-0.698792,-0.100586,-0.425781,0.48583999999999994,95.0,-153.812,57.25,-0.6613399999999999,-0.49851999999999996,-1.24214
609,49282960023,0.397095,0.0316772,0.588989,-0.703125,0.324707,-0.28369099999999997,0.5625,72.6875,-141.438,-2.75,-0.652007,-0.537878,-1.20874
610,49282982682,0.400452,0.055480999999999996,0.594055,-0.695435,0.898438,-0.1875,0.68457,33.3125,-80.75,-76.375,-0.630268,-0.5858979999999999,-1.2178
611,49283013857,0.39325,0.0671387,0.6060180000000001,-0.688171,0.988281,-0.23779299999999998,1.03955,25.4375,8.875,-78.4375,-0.593475,-0.605336,-1.2536100000000001
612,49283020133,0.392334,0.0629883,0.611084,-0.684631,0.478516,-0.297363,0.9125979999999999,-35.9375,16.375,-19.75,-0.592124,-0.601337,-1.26886
613,49283052907,0.405396,0.052490199999999994,0.613342,-0.6757810000000001,0.32568400000000003,-0.31005900000000003,0.7460939999999999,-111.5,-6.0625,-11.6875,-0.628119,-0.6043609999999999,-1.27214
614,49283082010,0.41894499999999996,0.0430298,0.616089,-0.665588,0.47021499999999994,-0.44873,0.814941,-112.375,-10.875,-20.8125,-0.663737,-0.610766,-1.2770700000000001
615,49283084459,0.427368,0.0374146,0.6216430000000001,-0.655334,0.5249020000000001,-0.633789,0.6289060000000001,-72.5,0.25,-48.6875,-0.682499,-0.6191939999999999,-1.2917100000000001
616,49283111320,0.434204,0.0393066,0.621521,-0.650879,0.607422,-0.760742,0.608887,-18.75,-31.8125,-28.0,-0.694579,-0.6321760000000001,-1.28901
617,49283125692,0.432983,0.0517578,0.620422,-0.6518550000000001,1.07861,-0.604004,0.736816,52.0,-29.0625,-11.1875,-0.67916,-0.649442,-1.28465
618,49283139997,0.42767299999999997,0.0610352,0.613831,-0.660767,0.384277,-0.43261700000000003,0.663574,73.0,-40.75,26.25,-0.66381,-0.6506430000000001,-1.26577
619,49283172799,0.425171,0.0669556,0.613586,-0.661987,0.531738,-0.22900399999999999,0.772949,17.3125,-23.4375,-1.9375,-0.652217,-0.656573,-1.26552
620,49283185471,0.42681899999999995,0.0658569,0.617798,-0.657104,0.585449,-0.293457,0.801758,-38.0,-2.0,-22.875,-0.6529510000000001,-0.661024,-1.2778
621,49283200060,0.428345,0.0615845,0.6232300000000001,-0.651428,0.544434,-0.451172,0.82373,-44.75,10.1875,-30.5625,-0.655885,-0.661309,-1.29413
622,49283232974,0.425659,0.05950930000000001,0.627441,-0.649231,0.5249020000000001,-0.46630900000000003,0.815918,-11.25,15.125,-21.6875,-0.6486729999999999,-0.657857,-1.30799
623,49283245518,0.422546,0.0585327,0.63031,-0.648621,0.48925799999999997,-0.433105,0.770996,-0.8125,10.5,-13.9375,-0.6407930000000001,-0.654297,-1.31785
624,49283262919,0.42126499999999995,0.057250999999999996,0.630737,-0.649109,0.5200199999999999,-0.47509799999999996,0.7246090000000001,-1.6875,3.0625,0.0625,-0.639263,-0.650694,-1.31955
625,49283291382,0.419128,0.0558472,0.630249,-0.651123,0.5092770000000001,-0.49706999999999996,0.711914,6.25,5.3125,7.75,-0.637089,-0.644798,-1.31871
626,49283305736,0.416016,0.0545654,0.6313479999999999,-0.652161,0.5043949999999999,-0.39306599999999997,0.6987300000000001,3.75,12.5625,1.9375,-0.631329,-0.6390979999999999,-1.32301
627,49283321534,0.41485600000000006,0.051330600000000004,0.6323850000000001,-0.6521,0.500488,-0.451172,0.650879,-9.125,14.375,1.3125,-0.631834,-0.633095,-1.3265799999999999
628,49283359491,0.41363500000000003,0.04895019999999999,0.632263,-0.653259,0.501953,-0.532227,0.6621090000000001,0.875,9.1875,4.8125,-0.632393,-0.6273569999999999,-1.32665
629,49283365875,0.41101099999999996,0.0493774,0.6315310000000001,-0.655579,0.524414,-0.49755900000000003,0.675293,17.5,3.1875,6.5625,-0.627325,-0.623492,-1.3251
630,49283381413,0.408386,0.0507812,0.630432,-0.658142,0.523926,-0.45605500000000004,0.6679689999999999,19.8125,-0.5625,8.0625,-0.621428,-0.620893,-1.3224
631,49283411537,0.40679899999999997,0.0517578,0.6290279999999999,-0.6604,0.52832,-0.43994099999999997,0.678711,13.3125,-3.75,10.25,-0.618387,-0.618899,-1.31854
632,49283425872,0.405212,0.0523071,0.627808,-0.662537,0.5566409999999999,-0.45654300000000003,0.68457,12.0625,-0.25,10.4375,-0.615711,-0.6164,-1.3152700000000002
633,49283440246,0.403198,0.0519409,0.626709,-0.664795,0.549805,-0.447266,0.699707,9.625,4.3125,12.9375,-0.613086,-0.611915,-1.31251
634,49283471533,0.40118400000000004,0.050414999999999995,0.625916,-0.66687,0.559082,-0.432129,0.702148,4.4375,9.9375,14.4375,-0.611574,-0.605843,-1.31073
635,49283486149,0.399231,0.0483398,0.626099,-0.66803,0.585938,-0.394531,0.700195,-2.0,16.0625,11.5,-0.610008,-0.599828,-1.31189
636,49283500155,0.398804,0.045898400000000006,0.626587,-0.66803,0.574707,-0.378418,0.679688,-12.0625,12.375,8.0,-0.611635,-0.5957060000000001,-1.3136
637,49283531363,0.400513,0.043762199999999994,0.626526,-0.667175,0.575195,-0.453125,0.6816409999999999,-17.4375,1.9375,3.9375,-0.617495,-0.594696,-1.3130899999999999
638,49283545668,0.401917,0.0430908,0.625916,-0.666931,0.6152340000000001,-0.517578,0.710449,-8.125,-2.75,3.875,-0.62152,-0.595121,-1.3109600000000001
639,49283576368,0.401489,0.044311500000000004,0.625,-0.6679689999999999,0.609375,-0.506836,0.7128909999999999,8.625,-4.4375,5.0,-0.620024,-0.595665,-1.30826
640,49283582538,0.400391,0.0467529,0.62384,-0.669556,0.601074,-0.45996099999999995,0.7246090000000001,14.1875,-7.5,6.0,-0.616009,-0.597004,-1.30495
641,49283616773,0.40124499999999996,0.0479126,0.622253,-0.670471,0.5825199999999999,-0.49365200000000004,0.713379,2.8125,-11.75,6.9375,-0.617698,-0.598738,-1.29995
642,49283646045,0.40387,0.0491943,0.620178,-0.670654,0.601562,-0.530273,0.702637,-3.375,-18.875,5.625,-0.623097,-0.6027710000000001,-1.29296
643,49283675253,0.406738,0.05169680000000001,0.617737,-0.671021,0.627441,-0.554688,0.6967770000000001,1.625,-24.125,4.5,-0.628045,-0.608812,-1.28475
644,49283677571,0.410034,0.0541382,0.6148680000000001,-0.6714479999999999,0.625488,-0.59082,0.6816409999999999,2.125,-26.3125,5.375,-0.634339,-0.6149720000000001,-1.27509
645,49283682946,0.413208,0.056701699999999994,0.611816,-0.672058,0.623047,-0.602539,0.656738,4.25,-26.1875,5.5,-0.640502,-0.620975,-1.2648700000000002
646,49283727748,0.41607700000000003,0.05950930000000001,0.6091310000000001,-0.672546,0.6308590000000001,-0.56543,0.625977,5.125,-24.4375,4.375,-0.6456310000000001,-0.627269,-1.25581
647,49283730148,0.419495,0.061889599999999996,0.605408,-0.673523,0.592773,-0.5532229999999999,0.588867,3.25,-27.4375,10.75,-0.653273,-0.632668,-1.24343
648,49283743001,0.42297399999999996,0.06427000000000001,0.601013,-0.675049,0.570801,-0.5532229999999999,0.577637,4.5,-30.0625,14.625,-0.661778,-0.63751,-1.2290299999999998
649,49283762756,0.42572,0.0669556,0.596191,-0.6773680000000001,0.549316,-0.5424800000000001,0.549805,10.625,-29.625,17.4375,-0.6689470000000001,-0.641413,-1.21361
650,49283785649,0.428284,0.06933589999999999,0.590759,-0.680237,0.494141,-0.564941,0.536621,13.375,-30.9375,19.5,-0.676618,-0.643945,-1.19649
651,49283800015,0.43066400000000005,0.07189939999999999,0.5855100000000001,-0.683044,0.49658199999999997,-0.588379,0.5273439999999999,15.3125,-30.75,17.1875,-0.683699,-0.6466770000000001,-1.18
652,49283822464,0.433167,0.07446289999999998,0.580505,-0.685425,0.500977,-0.607422,0.516113,14.6875,-30.125,14.5,-0.690863,-0.649751,-1.1641299999999999
653,49283846298,0.435547,0.0770264,0.575745,-0.6876220000000001,0.503418,-0.623047,0.5092770000000001,14.625,-29.0,12.1875,-0.697651,-0.652856,-1.1490200000000002
654,49283860033,0.437561,0.07910160000000001,0.57196,-0.6892699999999999,0.52832,-0.652832,0.518066,13.9375,-23.125,7.0,-0.703367,-0.6555300000000001,-1.13696
655,49283882503,0.439331,0.08050539999999999,0.569336,-0.690186,0.554199,-0.673828,0.503418,11.3125,-15.9375,1.8125,-0.708257,-0.657805,-1.1284299999999998
656,49283913865,0.44091800000000003,0.0812988,0.567566,-0.690552,0.580078,-0.6606449999999999,0.500977,7.75,-9.8125,-0.75,-0.712592,-0.659576,-1.1225100000000001
657,49283920106,0.442688,0.0812988,0.5664060000000001,-0.690369,0.59082,-0.610352,0.484375,0.6875,-5.0,0.25,-0.717551,-0.660783,-1.11835
658,49283945483,0.445068,0.08026119999999999,0.565735,-0.689453,0.604004,-0.598633,0.48535200000000006,-7.6875,-1.5,-0.3125,-0.724379,-0.6614399999999999,-1.11545
659,49283973905,0.44824200000000003,0.0783691,0.565308,-0.687988,0.5981449999999999,-0.620117,0.473145,-14.1875,-0.5625,-1.4375,-0.733643,-0.661909,-1.11307
660,49283980015,0.45098900000000003,0.0769653,0.565247,-0.686401,0.625,-0.6289060000000001,0.49121099999999995,-12.375,-0.125,-3.9375,-0.741186,-0.663018,-1.11184
661,49284005433,0.453003,0.0761108,0.565613,-0.684875,0.6157229999999999,-0.608398,0.501953,-8.6875,0.5625,-6.4375,-0.7462340000000001,-0.6645449999999999,-1.11205
662,49284026463,0.454651,0.07470700000000001,0.5661010000000001,-0.6834720000000001,0.606934,-0.6210939999999999,0.5268550000000001,-9.8125,2.25,-6.3125,-0.750778,-0.6647689999999999,-1.11289
663,49284040033,0.45605500000000004,0.0725708,0.567078,-0.6820069999999999,0.608398,-0.6367189999999999,0.562012,-12.3125,6.0,-6.6875,-0.755103,-0.66394,-1.1154899999999999
664,49284065528,0.457825,0.0703125,0.568054,-0.680237,0.59082,-0.6342770000000001,0.5297850000000001,-14.1875,5.5625,-7.9375,-0.760329,-0.663397,-1.11791
665,49284093882,0.45947299999999996,0.0680542,0.569458,-0.6782229999999999,0.591797,-0.617188,0.546875,-15.8125,6.25,-9.6875,-0.7649699999999999,-0.6631630000000001,-1.12165
666,49284100056,0.461487,0.0651245,0.571655,-0.6752319999999999,0.596191,-0.619629,0.543457,-22.5625,9.5,-13.5625,-0.770311,-0.6631100000000001,-1.1275899999999999
667,49284123922,0.463562,0.0619507,0.5744630000000001,-0.671692,0.604492,-0.6391600000000001,0.552246,-25.125,11.5625,-17.5,-0.775543,-0.663429,-1.13535
668,49284145049,0.465149,0.0587158,0.577942,-0.6679689999999999,0.605957,-0.625,0.567871,-25.4375,14.25,-19.875,-0.779261,-0.66378,-1.1453799999999998
669,49284162973,0.46630900000000003,0.055175800000000004,0.5818479999999999,-0.6640010000000001,0.601074,-0.619629,0.561523,-25.5,18.0625,-21.75,-0.781832,-0.663547,-1.1569
670,49284182726,0.466675,0.0518799,0.5862430000000001,-0.6601560000000001,0.586426,-0.59668,0.570312,-23.0625,20.25,-23.4375,-0.782062,-0.6632319999999999,-1.17024
671,49284205193,0.466797,0.048645,0.591248,-0.655884,0.605957,-0.597168,0.575684,-23.375,22.75,-26.9375,-0.7812140000000001,-0.663396,-1.18551
672,49284220242,0.46637,0.045349099999999996,0.59668,-0.651489,0.6108399999999999,-0.619629,0.580078,-20.8125,26.0,-29.875,-0.778817,-0.663192,-1.20234
673,49284244058,0.464905,0.0424194,0.602661,-0.6471560000000001,0.620117,-0.616211,0.585938,-16.125,29.9375,-32.25,-0.773265,-0.662721,-1.2212
674,49284274032,0.46295200000000003,0.0393066,0.6092529999999999,-0.642578,0.619629,-0.59375,0.585938,-15.9375,34.3125,-34.375,-0.7664,-0.66191,-1.24223
675,49284280064,0.460693,0.035522500000000005,0.616333,-0.637695,0.622559,-0.594238,0.592773,-18.375,38.8125,-35.5,-0.7592369999999999,-0.660088,-1.2651
676,49284304046,0.458313,0.0311279,0.623779,-0.632324,0.6289060000000001,-0.6420899999999999,0.6289060000000001,-20.3125,41.4375,-38.6875,-0.7521680000000001,-0.6574979999999999,-1.28931
677,49284334003,0.45575,0.026977499999999998,0.631409,-0.6267699999999999,0.658691,-0.688477,0.624023,-17.1875,43.625,-41.8125,-0.744455,-0.655235,-1.3142399999999999
678,49284340141,0.45202600000000004,0.0234375,0.639893,-0.621033,0.65332,-0.6152340000000001,0.623047,-13.3125,47.75,-44.3125,-0.7330300000000001,-0.653045,-1.3422100000000001
679,49284362584,0.447937,0.018981900000000003,0.6483760000000001,-0.615295,0.639648,-0.554199,0.633301,-17.875,52.0625,-40.125,-0.722019,-0.64879,-1.37055
680,49284384981,0.44403100000000006,0.0130005,0.657043,-0.609009,0.6206050000000001,-0.5893550000000001,0.668457,-25.125,55.375,-41.1875,-0.7132689999999999,-0.642664,-1.39974
681,49284402998,0.44091800000000003,0.00726318,0.665222,-0.602478,0.6367189999999999,-0.567871,0.629883,-26.8125,53.0,-39.3125,-0.706588,-0.637724,-1.42735
682,49284438911,0.436462,0.00177002,0.673096,-0.596985,0.614746,-0.533203,0.652832,-20.4375,55.0,-34.0,-0.697507,-0.630657,-1.4542899999999999
683,49284470207,0.43041999999999997,-0.00274658,0.68103,-0.592407,0.580566,-0.442871,0.658691,-12.5,57.4375,-30.75,-0.6844859999999999,-0.622421,-1.48159
684,49284472534,0.423584,-0.00817871,0.689148,-0.58783,0.586426,-0.452637,0.694336,-13.5625,63.5625,-29.1875,-0.671353,-0.611637,-1.50966
685,49284498832,0.416016,-0.0143433,0.697144,-0.583679,0.5717770000000001,-0.47998,0.6933590000000001,-11.375,69.1875,-26.5,-0.658558,-0.598376,-1.53742
686,49284504987,0.407776,-0.0201416,0.705444,-0.579346,0.597168,-0.45800799999999997,0.7070310000000001,-8.8125,72.875,-27.25,-0.644397,-0.584747,-1.5661399999999999
687,49284537803,0.399048,-0.0266113,0.7146,-0.573853,0.673828,-0.447754,0.742188,-13.1875,82.75,-30.0,-0.630141,-0.570172,-1.59779
688,49284558896,0.388855,-0.0338745,0.724731,-0.56781,0.6625979999999999,-0.41552700000000004,0.758789,-14.6875,94.125,-32.25,-0.614566,-0.552906,-1.63284
689,49284565024,0.377686,-0.0429688,0.73468,-0.561829,0.668457,-0.42675799999999997,0.782227,-13.9375,100.75,-32.875,-0.6010479999999999,-0.531323,-1.66747
690,49284599434,0.36554000000000003,-0.05261230000000001,0.7453,-0.5551149999999999,0.675293,-0.41894499999999996,0.7905270000000001,-14.8125,108.81200000000001,-36.5,-0.5874689999999999,-0.508035,-1.7045099999999997
691,49284610782,0.351501,-0.0625,0.756653,-0.547729,0.6889649999999999,-0.399902,0.813477,-11.25,119.625,-40.1875,-0.5719609999999999,-0.48189899999999997,-1.74417
692,49284626523,0.336426,-0.0737915,0.768433,-0.539246,0.6621090000000001,-0.365234,0.8374020000000001,-16.375,130.0,-42.9375,-0.5581510000000001,-0.452769,-1.78585
693,49284659298,0.32000700000000004,-0.0858765,0.78064,-0.529907,0.6235350000000001,-0.396973,0.8452149999999999,-17.0625,139.625,-46.25,-0.54508,-0.42092799999999997,-1.8295599999999999
694,49284718272,0.302063,-0.0975952,0.7928470000000001,-0.520203,0.5820310000000001,-0.402344,0.8652340000000001,-11.0,145.125,-48.0,-0.531108,-0.387031,-1.8737400000000002
695,49284725204,0.28320300000000004,-0.108643,0.805176,-0.509583,0.548828,-0.390625,0.863281,-6.8125,148.75,-53.4375,-0.516654,-0.352592,-1.9190099999999999
696,49284730748,0.24285900000000002,-0.129944,0.8295290000000001,-0.485779,0.47753900000000005,-0.412109,0.8491209999999999,-1.25,155.562,-61.5,-0.489155,-0.280326,-2.01162
697,49284745054,0.221313,-0.140076,0.841675,-0.47216800000000003,0.41503900000000005,-0.42431599999999997,0.8452149999999999,2.0,160.438,-67.125,-0.475987,-0.24264299999999997,-2.05994
698,49284784721,0.197937,-0.14965799999999999,0.8540040000000001,-0.457275,0.380371,-0.41845699999999997,0.8193360000000001,8.25,169.312,-72.875,-0.46202,-0.20259100000000002,-2.11058
699,49284787113,0.173157,-0.15850799999999998,0.866455,-0.44055200000000005,0.31005900000000003,-0.401855,0.815918,13.4375,175.25,-82.0625,-0.44766000000000006,-0.161099,-2.1640099999999998
700,49284830226,0.14752200000000001,-0.16650399999999999,0.8788450000000001,-0.42211899999999997,0.255859,-0.359863,0.804199,17.6875,179.062,-90.375,-0.43363999999999997,-0.11900999999999999,-2.21984
701,49284832590,0.121277,-0.173706,0.890747,-0.402039,0.21728499999999998,-0.36377,0.8125,21.75,181.125,-97.875,-0.42044499999999996,-0.07645539999999999,-2.2772799999999997
702,49284875170,0.0950928,-0.17993199999999998,0.9021610000000001,-0.380432,0.182617,-0.375488,0.814453,25.1875,179.875,-105.25,-0.408513,-0.034681300000000005,-2.3363099999999997
703,49284877612,0.0697021,-0.184998,0.913025,-0.35675,0.16748,-0.379395,0.8085939999999999,28.125,175.5,-116.06200000000001,-0.397975,0.00471637,-2.3975299999999997
704,49284899228,0.045043900000000005,-0.189575,0.923218,-0.33111599999999997,0.15478499999999998,-0.380859,0.791992,28.0625,172.812,-125.875,-0.390025,0.0423846,-2.4612
705,49284905412,0.020874,-0.192993,0.9328,-0.303528,0.0898438,-0.40918000000000004,0.7910159999999999,32.5625,169.0,-136.062,-0.383175,0.078295,-2.52757
706,49284928141,-0.00317383,-0.19439700000000001,0.941833,-0.274109,0.0639648,-0.46777299999999994,0.795898,43.4375,167.438,-144.812,-0.375535,0.11278900000000001,-2.5966099999999996
707,49284941619,-0.027221699999999998,-0.193176,0.9503780000000001,-0.24224899999999996,0.0268555,-0.543945,0.791504,58.375,165.5,-157.25,-0.36590300000000003,0.145852,-2.6694400000000003
708,49284993654,-0.050476099999999996,-0.18981900000000002,0.9581299999999999,-0.208313,0.022949200000000003,-0.6108399999999999,0.7827149999999999,69.5625,160.938,-167.875,-0.355582,0.176727,-2.74526
709,49285003527,-0.07250980000000001,-0.184814,0.9649049999999999,-0.171875,-0.0009765619999999999,-0.59375,0.7563479999999999,76.875,155.188,-180.812,-0.345661,0.204891,-2.8249299999999997
710,49285016354,-0.0935059,-0.179199,0.9702149999999999,-0.133606,-0.027343799999999998,-0.5825199999999999,0.755371,78.5,151.438,-190.5,-0.337971,0.23138499999999998,-2.90755
711,49285022635,-0.11334200000000001,-0.172974,0.973877,-0.0935059,-0.0629883,-0.612793,0.748047,80.75,146.75,-200.062,-0.332431,0.255895,-2.9933099999999997
712,49285062670,-0.13208,-0.165222,0.9760129999999999,-0.0508423,-0.126953,-0.638672,0.754883,89.4375,142.688,-213.5,-0.327259,0.278199,-3.08373
713,49285065221,-0.148621,-0.155701,0.9765010000000001,-0.00537109,-0.20263699999999998,-0.632324,0.7563479999999999,99.0625,133.125,-230.0,-0.321791,0.296243,3.10416
714,49285221943,-0.162537,-0.146118,0.974915,0.042236300000000004,-0.240723,-0.6137699999999999,0.7617189999999999,98.8125,121.375,-244.125,-0.31890999999999997,0.30949299999999996,3.00484
715,49285234994,-0.173096,-0.137207,0.9711299999999999,0.0898438,-0.272949,-0.605957,0.7485350000000001,94.1875,104.31200000000001,-248.438,-0.31854299999999997,0.316816,2.90576
716,49285243446,-0.18395999999999998,-0.0993042,0.9123540000000001,0.351929,-0.47998,-0.653809,0.602539,55.5625,8.5625,-242.875,-0.32813200000000003,0.26900999999999997,2.36045
717,49285247492,-0.176758,-0.10144,0.897583,0.390808,-0.45556599999999997,-0.6655270000000001,0.560059,43.1875,-9.4375,-239.312,-0.33602600000000005,0.240329,2.27927
718,49285270872,-0.16735799999999998,-0.10394300000000001,0.882568,0.42688000000000004,-0.41552700000000004,-0.624023,0.530762,42.875,-22.625,-227.75,-0.340077,0.208168,2.2046799999999998
719,49285325177,-0.15545699999999998,-0.10907,0.867676,0.459412,-0.40380900000000003,-0.654297,0.510254,32.625,-44.75,-213.25,-0.34371999999999997,0.170379,2.13804
720,49285401086,-0.142334,-0.118591,0.8518680000000001,0.489746,-0.308594,-0.6992189999999999,0.48193400000000003,12.5625,-61.5,-209.625,-0.35141300000000003,0.12667899999999999,2.0754099999999998
721,49285424248,-0.110535,-0.14599600000000001,0.8202510000000001,0.541809,-0.221191,-0.6464840000000001,0.45654300000000003,-13.1875,-99.8125,-188.062,-0.367607,0.023130500000000002,1.9697
722,49285430127,-0.0438232,-0.20282,0.770569,0.602539,0.171875,-0.8061520000000001,0.311035,7.1875,-156.875,-172.188,-0.380345,-0.177812,1.84854
723,49285432670,-0.0126953,-0.22021500000000002,0.754883,0.6176149999999999,0.333496,-0.737305,0.140625,27.1875,-171.75,-162.438,-0.368106,-0.25562399999999996,1.8179599999999998
724,49285455071,0.020752,-0.238525,0.7398680000000001,0.6286010000000001,0.606934,-0.655762,0.0664062,30.875,-186.25,-144.188,-0.35367,-0.33692,1.7937
725,49285491802,0.0562744,-0.257324,0.727905,0.632996,0.800293,-0.6621090000000001,0.062011699999999996,41.0,-202.688,-108.125,-0.33868000000000004,-0.41992799999999997,1.7828099999999998
726,49285497804,0.093811,-0.276123,0.71936,0.630432,0.824219,-0.7070310000000001,-0.0253906,56.3125,-219.562,-71.125,-0.32429,-0.504216,1.78657
727,49285518911,0.13446,-0.293213,0.713867,0.621521,0.954102,-0.723633,-0.17138699999999998,83.5625,-231.688,-40.25,-0.30750700000000003,-0.5901069999999999,1.8029700000000002
728,49285525024,0.17724600000000001,-0.308655,0.7125239999999999,0.604614,1.15527,-0.6679689999999999,-0.288086,109.875,-241.938,2.125,-0.293333,-0.67618,1.83801
729,49285547535,0.219971,-0.32495100000000005,0.713989,0.579834,1.32568,-0.708008,-0.329102,118.81200000000001,-253.688,44.5625,-0.293204,-0.7628010000000001,1.8957
730,49285581858,0.264832,-0.334351,0.720703,0.546509,1.55664,-0.8061520000000001,-0.458984,165.438,-268.562,87.125,-0.293799,-0.8438100000000001,1.9766599999999999
731,49285633345,0.314575,-0.336914,0.732727,0.500549,1.8457,-0.696289,-0.668945,238.625,-284.188,136.375,-0.301465,-0.924433,2.09393
732,49285671009,0.36230500000000004,-0.340454,0.745911,0.443115,2.21387,-0.49121099999999995,-0.6918949999999999,251.562,-298.375,193.75,-0.353892,-1.00138,2.26452
733,49285700687,0.44488500000000003,-0.355103,0.767212,0.29541,3.00977,-0.433594,-0.6918949999999999,265.562,-322.375,308.875,-0.6755439999999999,-1.10273,2.83208
734,49285709304,0.501709,-0.369019,0.775696,0.101746,3.46045,-0.353027,-0.312012,275.438,-327.312,422.43800000000005,-1.12598,-1.02255,-2.7216400000000003
735,49285728738,0.517578,-0.36908,0.7718510000000001,-0.00970459,3.5752,-0.522949,-0.21826199999999998,323.688,-319.0,462.75,-1.25134,-0.9137870000000001,-2.43375
736,49285739480,0.521179,-0.359619,0.763123,-0.129028,3.4941400000000002,-0.324707,-0.0581055,379.56199999999995,-296.938,496.25,-1.28865,-0.779108,-2.20814
737,49285761782,0.511414,-0.343323,0.747314,-0.249023,3.09326,-0.673828,0.150391,407.31199999999995,-265.812,511.375,-1.26647,-0.635255,-2.02446
738,49285766474,0.48339799999999994,-0.316772,0.727173,-0.370422,2.89062,-0.814453,-0.0786133,473.56199999999995,-217.75,530.062,-1.18563,-0.487421,-1.8674099999999998
739,49285790511,0.43981899999999996,-0.288391,0.699158,-0.484253,2.47266,-0.8769530000000001,-0.13525399999999999,479.18800000000005,-163.938,538.938,-1.0766,-0.342346,-1.72426
740,49285804010,0.385498,-0.264771,0.661438,-0.586304,2.10889,-1.1845700000000001,0.0078125,443.625,-112.68799999999999,547.875,-0.959261,-0.20084200000000002,-1.5863200000000002
741,49285836128,0.318298,-0.240112,0.6171260000000001,-0.678345,1.7924799999999999,-1.2470700000000001,-0.0146484,458.75,-66.0,549.438,-0.818095,-0.0671533,-1.4472
742,49285855668,0.237244,-0.21405,0.565491,-0.760315,1.5654299999999999,-1.23486,-0.214844,489.75,-22.125,558.938,-0.648309,0.0572043,-1.29818
743,49285863996,0.15399200000000002,-0.195496,0.508362,-0.8244020000000001,1.4799799999999999,-0.75,-0.25293000000000004,443.25,33.1875,537.25,-0.476889,0.166536,-1.1457
744,49285887939,0.08343510000000001,-0.193237,0.445374,-0.870239,1.13477,-0.6367189999999999,0.135742,318.938,107.125,521.0,-0.335065,0.2651,-0.99113
