Packet number,Gyroscope X (deg/s),Gyroscope Y (deg/s),Gyroscope Z (deg/s),Accelerometer X (g),Accelerometer Y (g),Accelerometer Z (g),Magnetometer X (G),Magnetometer Y (G),Magnetometer Z (G)
1,-41.625,30.4375,59.9375,-0.045041429,0.098602959,0.045390204,,,
2,-94.75,25.75,49.8125,-0.072245714,0.072644286,0.052664592,,,
3,-78.1875,14.9375,58.125,-0.070202857,0.052365714,0.061583265,,,
4,-33.0625,11.1875,64.9375,-0.06078602,0.048529184,0.05410949,,,
5,-15.5625,6.25,72.3125,-0.061981837,0.058942551,0.048130612,,,
6,-28.0625,5.9375,79.8125,-0.054209184,0.074736939,0.046536224,,,
7,-54.625,11.9375,75.5625,-0.048828163,0.078872347,0.046785306,,,
8,-67.6875,19.9375,67.0625,-0.052664592,0.070153061,0.049475816,,,
9,-62.3125,26.4375,67.125,-0.055355102,0.068508878,0.050322857,,,
10,-58.4375,27.75,65.8125,-0.054956531,0.06990398,0.049824592,,,
11,-61.4375,26.6875,60.9375,-0.054458265,0.070651327,0.049525714,,,
12,-66.5,25.25,55.6875,-0.053910204,0.071348878,0.047383163,,,
13,-70.875,23.0625,47.9375,-0.056700408,0.070402143,0.048529184,,,
14,-72.6875,11.125,35.5,-0.064323571,0.066515816,0.051169898,,,
15,-67.75,-11.125,17.25,-0.06661551,0.056401429,0.048977551,,,
16,-53.4375,-29.25,-3.375,-0.071498367,0.040756531,0.057896224,,,
17,-34.125,-47.3125,-23.875,-0.077178367,0.024613367,0.059988878,,,
18,5.5,-51.625,-36.3125,-0.068957245,0.02301898,0.062579694,,,
19,46.9375,-54.1875,-51.3125,-0.079071633,0.030841429,0.059590204,,,
20,65.125,-46.4375,-55.0625,-0.076630306,0.046087755,0.048379694,,,
21,49.5,-34.5,-73.9375,-0.077477245,0.049276531,0.042350918,,,
22,20.0625,-24.1875,-87.5,-0.077128469,0.045888469,0.047931327,,,
23,5.625,-18.5625,-94.875,-0.070651327,0.049127041,0.052515102,,,
24,-3.0625,-15,-107.625,-0.066117245,0.051867449,0.054358673,,,
25,-12.3125,-6.125,-120.5,-0.061932041,0.053212653,0.057397959,,,
26,-12.1875,12.625,-121.375,-0.057547449,0.053362143,0.062280816,,,
27,-10.125,38.625,-113.438,-0.061085,0.061633061,0.062579694,,,
28,-19.75,62.75,-105.062,-0.065818367,0.069355918,0.05809551,,,
29,-36.6875,82.6875,-94.625,-0.06646602,0.069704592,0.053661122,,,
30,-124.625,109.375,28.4375,-0.073192347,-0.014997245,0.109315306,,,
31,-55.5,17.8125,-23.0625,-0.093769898,0.007971939,0.084502551,,,
32,-62.4375,2.1875,19.9375,-0.087292755,0.005281408,0.03238602,,,
33,-57.3125,27.8125,36.125,-0.075534082,0.018534796,0.03153898,,,
34,-68.9375,37.5,45.3125,-0.084153776,0.023915816,0.031987449,,,
35,-93.5625,28.1875,52.125,-0.087541837,0.020228776,0.041155102,,,
36,-90.125,9.1875,53.75,-0.083456224,0.008420357,0.055006327,,,
37,-72.25,-6.8125,56.375,-0.077178367,-0.005630184,0.065718673,,,
38,-31.1875,-5.9375,57.3125,-0.06422398,-0.010612653,0.054607755,,,
39,26.9375,0.375,50.0625,-0.06930602,0.001494735,0.055056224,,,
40,47.5,-12,51.1875,-0.084004286,0.021275102,0.054607755,,,
41,36.6875,-33.9375,67.375,-0.08649551,0.039560714,0.047532653,,,
42,-4.0625,-53.25,77.125,-0.080965,0.045988163,0.054059694,,,
43,-26.8125,-61.25,73.875,-0.077028878,0.035624592,0.056401429,,,
44,-13.9375,-59.75,78.375,-0.079968469,0.026955102,0.059889184,,,
45,4.5625,-58.5625,93.6875,-0.079370612,0.026556531,0.061085,,,
46,8.3125,-60.125,110,-0.073341837,0.030044286,0.062679388,,,
47,6.3125,-64.4375,117.125,-0.067861122,0.033183163,0.061782551,,,
48,6.125,-68.4375,119.5,-0.064971327,0.038414796,0.063825306,,,
49,1.3125,-67.375,117.562,-0.063476531,0.043148163,0.06661551,,,
50,-4.625,-61.75,115.188,-0.061184592,0.047433061,0.068957245,,,
51,-11.75,-54,113.938,-0.062579694,0.047881429,0.071398673,,,
52,-13.9375,-43.5625,111.812,-0.058992347,0.045838673,0.076032347,,,
53,-16.375,-24.25,109.875,-0.055006327,0.048030918,0.077028878,,,
54,-21.875,-5.4375,104.812,-0.057746735,0.049924286,0.071597959,,,
55,-38.3125,5.125,98.9375,-0.061583265,0.047731939,0.06706398,,,
56,-52,12.625,94.875,-0.061782551,0.041454082,0.065070918,,,
57,-47.4375,21.75,94.75,-0.057447755,0.038813367,0.061433776,,,
58,-37.9375,33,94.375,-0.056899694,0.039660408,0.058992347,,,
59,-28.375,45.75,92.6875,-0.053661122,0.04658602,0.056202143,,,
60,-20.625,57.75,89.0625,-0.04987449,0.054807041,0.052365714,,,
61,-8.8125,67.625,82.5625,-0.054358673,0.066316531,0.047134082,,,
62,-19,40.6875,50.9375,-0.089534796,0.033631633,0.057647041,,,
63,7.25,28.8125,28.8125,-0.066416224,0.055803571,0.055703878,,,
64,32.125,52,74.6875,-0.017289184,0.083406429,0.037617551,,,
65,-11.9375,54.4375,40.5,-0.038763571,0.079420408,0.053362143,,,
66,-27.3125,34.9375,23,-0.053113061,0.071847143,0.055753776,,,
67,-20.4375,29,21.5625,-0.04274949,0.060835816,0.052664592,,,
68,-27.375,38.875,14.125,-0.041304592,0.05555449,0.051169898,,,
69,8.625,40.125,18.25,-0.042799388,0.058892653,0.048230204,,,
70,2.625,34.375,1.9375,-0.050322857,0.056152347,0.057298265,,,
71,5.125,23.5,-16,-0.048628776,0.050571939,0.054308878,,,
72,13.8125,15.375,-35.125,-0.04942602,0.047084286,0.054508163,,,
73,15.875,12.3125,-49,-0.045390204,0.047632347,0.054358673,,,
74,31.125,6.8125,-67.75,-0.048927755,0.043496939,0.062679388,,,
75,58.875,7.9375,-74.3125,-0.057148878,0.036172653,0.065021122,,,
76,99.125,31.125,-59.6875,-0.065070918,0.058494082,0.050621837,,,
77,104.875,32.9375,-49.0625,-0.078174796,0.088139796,0.04544,,,
78,64.625,19.625,-33.25,-0.066316531,0.107421429,0.047532653,,,
79,-12.75,2.9375,-44.5,-0.051169898,0.103684694,0.052116531,,,
80,-65.1875,-4.1875,-59,-0.054557959,0.076630306,0.048728469,,,
81,-37.75,-1.125,-46.1875,-0.070302551,0.057248469,0.059390918,,,
82,6.8125,-13.875,-28.5,-0.063526429,0.046984592,0.078374082,,,
83,50.5,-21.3125,-30.5,-0.052863878,0.057995816,0.076879388,,,
84,65.75,-30,-33.375,-0.055056224,0.078224694,0.069405714,,,
85,48.625,-44.625,-40.0625,-0.055753776,0.085200102,0.068110204,,,
86,5.875,-60.9375,-42.625,-0.05809551,0.071249184,0.069206429,,,
87,-4.3125,-66.75,-38.25,-0.054856939,0.04942602,0.069056939,,,
88,16.875,-65.4375,-29.0625,-0.052515102,0.046037959,0.065569184,,,
89,24.6875,-68.8125,-24.8125,-0.052565,0.037767041,0.060088469,,,
90,33.5,-72.5,-24.25,-0.048877959,0.032286327,0.056052653,,,
91,32.3125,-60.5625,-18.5,-0.048030918,0.037517959,0.057148878,,,
92,35.625,-46.375,-20.125,-0.050970612,0.04658602,0.067612041,,,
93,32.0625,-30.8125,-17.3125,-0.054607755,0.057647041,0.074039388,,,
94,20.375,-16.4375,-20.3125,-0.057198673,0.057049184,0.062679388,,,
95,20.625,4.9375,-27.25,-0.06407449,0.044642857,0.06990398,,,
96,35.625,22.1875,-28.1875,-0.067213367,0.046685714,0.063277245,,,
97,23.25,32.9375,-14.0625,-0.069106735,0.039062449,0.071847143,,,
98,21.5625,48.875,-2.75,-0.06706398,0.015844184,0.073840102,,,
99,19.9375,78.0625,41.4375,-0.048828163,0.041155102,0.06646602,,,
100,8.4375,96.9375,84.25,-0.034628061,0.076630306,0.056451327,,,
101,-58.875,99.6875,65,-0.033980408,0.061284286,0.050821122,,,
102,-90.3125,130.312,85.5,-0.032136837,0.086096939,0.03422949,,,
103,-141.625,141.25,102.812,-0.039112347,0.076580408,0.050522143,,,
104,-154.75,120.938,85.6875,-0.056600816,0.057397959,0.070651327,,,
105,-147.812,91.375,88.9375,-0.051967041,0.04957551,0.068010612,,,
106,-114.938,98.0625,96.5625,-0.027204286,0.050771327,0.070153061,,,
107,-72.1875,102.375,60.8125,-0.035475102,0.078673061,0.07259449,,,
108,-70.375,108.75,43.1875,-0.057198673,0.107571429,0.059241429,,,
109,-88.25,104.25,44.8125,-0.067612041,0.110909184,0.058942551,,,
110,-100.812,95.5625,40.625,-0.059789592,0.110062245,0.044543163,,,
111,-121.5,83.375,36.4375,-0.062679388,0.096360816,0.041653367,,,
112,-108.062,73.25,43.125,-0.057796531,0.083157245,0.041952347,,,
113,-100.438,61.5625,39.0625,-0.046436531,0.065220408,0.039062449,,,
114,-90.4375,57.1875,29.375,-0.035026735,0.057647041,0.049924286,,,
115,-87.375,63.5,32.75,-0.02969551,0.047433061,0.05709898,,,
116,-72.9375,72.25,33.8125,-0.047532653,0.047781837,0.052565,,,
117,-73.3125,68.25,34.4375,-0.064124286,0.061832347,0.061682857,,,
118,-87,46.4375,56.375,-0.063277245,0.062679388,0.066665306,,,
119,-84.875,22.625,61.625,-0.050322857,0.058842857,0.074039388,,,
120,-62.125,21.8125,73.125,-0.038713776,0.068359388,0.072893367,,,
121,-57.6875,22,76.1875,-0.041553776,0.083007857,0.075085714,,,
122,-76.25,12.6875,61.625,-0.045938265,0.087242857,0.074886429,,,
123,-91.5625,3.625,50.625,-0.053810612,0.083157245,0.074836531,,,
124,-84.75,-0.5625,47.375,-0.063227449,0.086296224,0.079719388,,,
125,-75.625,-5.125,49.8125,-0.069256224,0.091876633,0.084602245,,,
126,-75.5,-11.1875,52.5,-0.070750918,0.093520816,0.082260408,,,
127,-83.8125,-18.5625,58.4375,-0.069206429,0.084652041,0.082509592,,,
128,-82.6875,-26.5,71,-0.067861122,0.077527143,0.078673061,,,
129,-76.3125,-38.125,85.9375,-0.066864592,0.07274398,0.073092755,,,
130,-75.75,-51,103.25,-0.057746735,0.073939694,0.066416224,,,
131,-74.4375,-64.8125,114.188,-0.051169898,0.086844286,0.060835816,,,
132,-77.6875,-74.375,122.125,-0.048628776,0.093421122,0.056650612,,,
133,-77.0625,-78.875,131.25,-0.048080714,0.092873061,0.04942602,,,
134,-68.3125,-79.125,140.625,-0.050372653,0.087492041,0.044493367,,,
135,-55.9375,-75.75,151,-0.048529184,0.084054082,0.040357959,,,
136,-43.4375,-65.375,162.875,-0.041553776,0.082957959,0.038265306,,,
137,-34.1875,-52.3125,174.938,-0.032186735,0.082409898,0.035973367,,,
138,-28.875,-37.3125,182.5,-0.025908776,0.081762245,0.035126327,,,
139,-29.4375,-21.875,185.438,-0.025261122,0.079370612,0.034877245,,,
140,-33.5,-3.25,184.688,-0.024214796,0.07842398,0.038265306,,,
141,-39.4375,19.125,180.625,-0.026108061,0.07214602,0.042002143,,,
142,-41.8125,37.1875,174.625,-0.029047755,0.067163571,0.04105551,,,
143,-45.875,55.5,169.688,-0.032734796,0.061483571,0.040806327,,,
144,-43.6875,71.625,164.5,-0.037318673,0.057497653,0.036421837,,,
145,357.062,-191.5,-374.438,-0.268405102,0.056650612,-0.023168469,,,
146,395.125,-246.938,-396.75,-0.29795102,0.047233776,-0.021823163,,,
147,477.188,-313.062,-395.562,-0.339953061,0.046386735,-0.017986735,,,
148,555,-394.188,-348.688,-0.363570408,0.083256939,-0.033830918,,,
149,523,-471.188,-262.562,-0.353057143,0.13512449,-0.044642857,,,
150,398.812,-532.312,-182.75,-0.342244898,0.131885714,-0.028051224,,,
151,292.688,-568.375,-137.438,-0.304876531,0.086146735,-0.02670602,,,
152,244.062,-587.875,-110.312,-0.293915306,0.086595204,-0.051070204,,,
153,176.688,-596.062,-42.625,-0.287487755,0.113052041,-0.069654796,,,
154,62.875,-605.062,31.9375,-0.253209184,0.126455102,-0.065718673,,,
155,-25.4375,-606.812,76.3125,-0.204928571,0.124113265,-0.041155102,,,
156,-70.9375,-592.188,103.438,-0.149573469,0.115991837,-0.027553061,,,
157,-101.5,-559.875,127.375,-0.120027551,0.122469388,-0.026407041,,,
158,-153.688,-523.875,159.938,-0.104232653,0.145786735,-0.021574082,,,
159,-204.188,-498.188,196.062,-0.083805,0.12062551,-0.030542449,,,
160,-220.188,-477.125,233.938,-0.045290612,0.104980612,-0.03706949,,,
161,-237.188,-441.438,259.625,0.011459694,0.08410398,-0.041952347,,,
162,-212.062,-386.5,233.375,0.056351633,0.074936224,-0.052764286,,,
163,-201.562,-312.125,165.562,0.051120102,0.090830306,-0.056999388,,,
164,-186.812,-199.125,132.562,0.033631633,0.068160102,-0.086844286,,,
165,-146.75,-93.75,114.312,0.058344592,0.005480704,-0.10667449,,,
166,-102.062,-15.25,86.8125,0.089534796,-0.037617551,-0.09531449,,,
167,-51.875,29.5625,40.5625,0.065469592,-0.040407755,-0.1137,,,
168,-64.0625,57.375,-3.375,0.072245714,-0.054358673,-0.098652755,,,
169,-44,67.5625,-37.4375,0.080018367,-0.068608469,-0.09347102,,,
170,-15.3125,70.625,-58.25,0.10652551,-0.027054796,-0.096161531,,,
171,1.375,73.4375,-74.4375,0.089086429,-0.028948061,-0.069804286,,,
172,12.75,58.5,-84.9375,0.089833776,-0.024065306,-0.050123571,,,
173,17.625,59.5625,-79.4375,0.088089898,-0.023517245,-0.029496122,,,
174,39.3125,61.0625,-76.625,0.084751633,-0.016043571,-0.013851224,,,
175,50.875,64.25,-73.375,0.090132755,-0.010512959,-0.003786673,,,
176,48.5,78.25,-81.625,0.094168571,0.003487724,0.010014745,,,
177,43.8125,102.75,-101.25,0.100546122,0.001494735,0.015644898,,,
178,51.8125,139.25,-129.062,0.099798673,-0.007722816,0.027752347,,,
179,69.9375,166.875,-118.875,0.084054082,-0.007822469,0.036820408,,,
180,98.5,185.312,-106.25,0.07797551,0.01973051,0.040607041,,,
181,79.25,194.938,-101.188,0.08350602,0.020527755,0.044792347,,,
182,72.8125,202.75,-97.5,0.07827449,0.024314388,0.055654082,,,
183,74.0625,189.562,-91.8125,0.063875204,0.036720714,0.06277898,,,
184,76.9375,177.562,-85.125,0.064672347,0.037866735,0.065419694,,,
185,84.3125,178.125,-76,0.063277245,0.037318673,0.064921429,,,
186,76,179.25,-67.375,0.06277898,0.030143878,0.078174796,,,
187,89.0625,161.375,-66.4375,0.057397959,0.041155102,0.08111449,,,
188,64.75,140.75,-78.75,0.044045,0.053013367,0.082609184,,,
189,48.0625,125.188,-79.125,0.041952347,0.045290612,0.087143265,,,
190,61.8125,114.375,-70.8125,0.051618265,0.040108776,0.093421122,,,
191,73.4375,106.562,-63.25,0.056700408,0.04389551,0.097606429,,,
192,75.9375,96.3125,-66.125,0.052016939,0.056700408,0.094168571,,,
193,23.9375,71,-59.8125,0.027154388,0.04703449,0.094666735,,,
194,38.5,68.875,-39.125,0.038663878,0.051967041,0.097606429,,,
195,46.3125,63.75,-39.1875,0.036820408,0.063127755,0.087541837,,,
196,34.0625,54.125,-42.5625,0.022819694,0.065818367,0.085200102,,,
197,18.5625,46.1875,-34.8125,0.023517245,0.060337653,0.090282245,,,
198,18.375,47.8125,-28.6875,0.027901837,0.059689898,0.094068878,,,
199,20.875,48.125,-27.25,0.024862449,0.065369898,0.091926429,,,
200,13.1875,42.1875,-31.875,0.01674102,0.071647755,0.090082857,,,
201,-6.8125,38.0625,-34.5625,0.014150204,0.063925,0.086096939,,,
202,-3.25,38.0625,-36.625,0.011110918,0.062181122,0.087292755,,,
203,-1.75,39.8125,-38.75,0.011160714,0.065569184,0.083057653,,,
204,-9.375,45.875,-42.9375,0.011609184,0.067014082,0.079669592,,,
205,-25.625,54.5625,-50,0.008818959,0.063426735,0.076082143,,,
206,-41.5625,68.5,-56.5625,0.008968429,0.057397959,0.071099694,,,
207,-52.0625,86.875,-62.9375,0.009267378,0.049276531,0.06706398,,,
208,-52.625,100.125,-71.1875,0.005630184,0.044244286,0.064174082,,,
209,-46.8125,108.312,-82.3125,0.001694041,0.043546735,0.06407449,,,
210,-41.625,118.188,-95,-0.003437898,0.045838673,0.065569184,,,
211,-42.4375,132,-104.25,-0.012854796,0.046137551,0.06646602,,,
212,-50.75,145.875,-113.062,-0.021474388,0.044593061,0.066067449,,,
213,-57.9375,150.75,-123.875,-0.026207755,0.037916531,0.065369898,,,
214,-64.3125,154.812,-134.938,-0.027004898,0.031190204,0.067362857,,,
215,-58.125,159.688,-149.5,-0.033930612,0.030293367,0.070750918,,,
216,-54.75,163.5,-160.75,-0.046536224,0.025759286,0.07543449,,,
217,-56.8125,168.625,-170.188,-0.053412041,0.018933367,0.079021837,,,
218,-56.75,167.688,-177.312,-0.060536939,0.010363469,0.079569898,,,
219,-60.9375,164.438,-177.812,-0.071149592,0.003188776,0.081413469,,,
220,-63.8125,160.438,-173.312,-0.085997245,-4.98246E-05,0.081463265,,,
221,-78.375,153.875,-163.938,-0.106076531,-0.000797194,0.084502551,,,
222,-92.9375,145.312,-140.188,-0.118133673,-0.011957959,0.087741122,,,
223,-99.75,136.812,-111.062,-0.112006122,-0.011260408,0.088538367,,,
224,-108.562,121.562,-87.6875,-0.107023469,-0.008270888,0.082260408,,,
225,-117.312,93.1875,-63.6875,-0.100595918,-0.016342449,0.076430918,,,
226,-112.75,70.75,-38.5625,-0.07827449,-0.017687755,0.064323571,,,
227,-100.312,62.875,-23.3125,-0.060736224,-0.012306633,0.044543163,,,
228,-96.0625,60.8125,-21.4375,-0.062928469,-0.015395816,0.022769898,,,
229,-106.5,62.875,-27,-0.065469592,-0.018285612,0.007324214,,,
230,-128.562,64.875,-32.1875,-0.074288469,-0.024812653,-0.010263878,,,
231,-143.938,75.9375,-38.0625,-0.088339082,-0.042051939,-0.009068082,,,
232,-128.125,89.3125,-42.75,-0.092075918,-0.056252041,-0.006377551,,,
233,-102.438,106.062,-44.3125,-0.099699082,-0.06277898,-0.005331235,,,
234,-79.1875,116.25,-43.0625,-0.104382653,-0.064522857,0.00298948,,,
235,-46.25,118.188,-42.5625,-0.107023469,-0.061383878,0.019082857,,,
236,-45.1875,113.188,-40.6875,-0.107372449,-0.057696939,0.023766327,,,
237,-33.4375,101.062,-42.5625,-0.098453469,-0.069704592,0.030841429,,,
238,3.75,82.125,-43.4375,-0.092723571,-0.069605,0.039261837,,,
239,24.3125,60.3125,-44.5,-0.093122245,-0.068658367,0.04090602,,,
240,40.375,39.375,-40.5625,-0.086993776,-0.068160102,0.040706735,,,
241,54.875,17.875,-38.6875,-0.089285714,-0.066864592,0.038414796,,,
242,74.125,-2.25,-36.25,-0.088538367,-0.068508878,0.031140408,,,
243,96.6875,-18.25,-33.3125,-0.089285714,-0.067910918,0.025161429,,,
244,110.312,-31.0625,-29.3125,-0.089485,-0.065768469,0.015894082,,,
245,120.375,-39.5,-21.625,-0.085748163,-0.057248469,0.010463163,,,
246,121.125,-40.125,-17.5,-0.079171327,-0.050771327,0.007573347,,,
247,118.938,-35.0625,-18.375,-0.076580408,-0.036322143,0.003637194,,,
248,-39.0625,6.9375,26.6875,-0.103585714,-0.04374602,0.023816122,,,
249,-16.5,8.6875,24.375,-0.104332653,-0.052365714,0.031190204,,,
250,8,13.25,26.5,-0.107870408,-0.050571939,0.031090612,,,
251,33.3125,19.8125,28.3125,-0.109016327,-0.053162857,0.030293367,,,
252,64.5625,24.3125,27.25,-0.103784694,-0.037368469,0.03408,,,
253,18.8125,25.8125,22.125,-0.112354082,-0.020428061,0.020826735,,,
254,-16.375,22.8125,18.75,-0.108318367,-0.055903265,0.026805612,,,
255,20.875,21.5625,19.125,-0.100047857,-0.058245,0.028798673,,,
256,56.4375,22.375,17.9375,-0.094367857,-0.039112347,0.019381735,,,
257,54.25,22.9375,12,-0.091926429,-0.027204286,0.01689051,,,
258,30.375,21.0625,10.4375,-0.089086429,-0.022371224,0.01165898,,,
259,31.3125,21.375,11.3125,-0.083007857,-0.032186735,0.019680714,,,
260,46.3125,20.25,15.9375,-0.078174796,-0.013203571,0.017438571,,,
261,36.8125,18.375,16.5,-0.085847857,0.003188776,0.016192959,,,
262,24.375,18.375,20.1875,-0.094766429,0.000946667,0.018933367,,,
263,-2,15.5,28.4375,-0.097556633,0.029247041,0.013701735,,,
264,-99.4375,5.4375,36.75,-0.103485714,0.016093367,0.014648469,,,
265,-150.625,-3.8125,39.1875,-0.097058367,-0.009765622,0.031588776,,,
266,-189.812,-19.125,37.8125,-0.102090816,-0.034179694,0.030044286,,,
267,-188.625,-35.75,24.8125,-0.104681633,-0.062828878,0.046037959,,,
268,-167.375,-52.5,14.6875,-0.103634694,-0.065768469,0.045141122,,,
269,-130.062,-65.6875,18.9375,-0.108567347,-0.044842143,0.02585898,,,
270,-93.25,-84.75,26.125,-0.112653061,-0.027204286,0.068110204,,,
271,22.5,-61.8125,10.5,-0.089534796,-0.065419694,-0.009167735,,,
272,179,-30.4375,-12,-0.093221837,0.000398597,-0.04274949,,,
273,23.75,-25.6875,5.3125,-0.10069551,0.028848469,-0.005580357,,,
274,-36.3125,-18.1875,10.875,-0.077178367,-0.020776837,0.004434388,,,
275,-51.8125,-20.4375,0.1875,-0.094616939,-0.02002949,0.007971939,,,
276,-104.812,-27.8125,0.375,-0.099400102,-0.027254082,0.019680714,,,
277,-97.25,-32.6875,3,-0.098353776,-0.045041429,0.029844898,,,
278,-51.0625,-35,-0.5,-0.095214796,-0.043945306,0.032983878,,,
279,-6.0625,-33.1875,-7.3125,-0.095065408,-0.041254796,0.021872959,,,
280,33,-32.25,-13.4375,-0.092873061,-0.037019694,0.014997245,,,
281,51.375,-31.9375,-21.1875,-0.091677347,-0.042849184,0.00652702,,,
282,91.1875,-34.8125,-29.25,-0.091428163,-0.050422551,0.007971939,,,
283,133.812,-30.3125,-37.8125,-0.096759388,-0.048080714,0.010911633,,,
284,150.438,12.3125,-40.6875,-0.102688776,-0.052565,0.016641429,,,
285,70.0625,24.125,-48.8125,-0.08679449,-0.049027449,0.028848469,,,
286,65.625,26.4375,-46.0625,-0.087342551,-0.040706735,0.030243571,,,
287,63.6875,25.75,-43.5,-0.090780408,-0.040407755,0.027901837,,,
288,62.9375,20.8125,-36.375,-0.088787449,-0.029795102,0.027104592,,,
289,53.4375,16.5625,-29,-0.086146735,-0.019581122,0.026606327,,,
290,42.5,15,-19.5625,-0.088887143,-0.021324898,0.025609898,,,
291,36.5,15,-7.8125,-0.091228878,-0.021524286,0.027104592,,,
292,29.6875,17.5,2.6875,-0.086595204,-0.014548776,0.029944592,,,
293,10.75,20.25,7.0625,-0.086096939,-0.011011224,0.030442857,,,
294,-26.875,29.3125,14.1875,-0.075085714,-0.03976,0.044543163,,,
295,-8.5,33.875,11.625,-0.078772755,-0.042998673,0.043247755,,,
296,11.625,36.5625,12.4375,-0.08211102,-0.034528469,0.046536224,,,
297,3.75,36.25,-0.1875,-0.07498602,-0.035176224,0.050522143,,,
298,-12.3125,35.4375,-19.8125,-0.071946735,-0.04374602,0.05241551,,,
299,-20.5625,36.6875,-33.25,-0.078922245,-0.050621837,0.053810612,,,
300,-24.9375,38.5625,-38,-0.082459694,-0.044144592,0.049725,,,
301,-30.25,37.1875,-48.0625,-0.086246429,-0.039361429,0.041952347,,,
302,-32.4375,33.75,-49.5625,-0.095613469,-0.035325612,0.031588776,,,
303,-34.5,31.1875,-39.5625,-0.098503265,-0.02541051,0.022171939,,,
304,-44.625,31.3125,-24.4375,-0.097656224,-0.018136122,0.005281408,,,
305,-76,47.375,17.4375,-0.108767347,0.002042806,-0.015694796,,,
306,-146.562,31.375,12.875,-0.05993898,-0.048180408,0.035724286,,,
307,-109.688,24.625,-32.25,-0.078623265,-0.094915918,0.037567755,,,
308,-35.75,36.0625,-0.375,-0.085548878,-0.056700408,-0.005729827,,,
309,-33.3125,39.1875,-0.5625,-0.093271633,-0.053461837,-0.006078602,,,
310,-45.9375,40.5,2.8125,-0.097755918,-0.040856224,-0.010961429,,,
311,-50.3125,40.25,4.0625,-0.099848571,-0.048778265,-0.005082112,,,
312,-39.875,39.4375,7.125,-0.098752347,-0.040208469,-0.005032286,,,
313,-45.125,37.5625,10.1875,-0.094417653,-0.023915816,-0.005331235,,,
314,-55.5,34.5,9.875,-0.090282245,-0.032784592,-0.000896843,,,
315,-38.5,29.1875,12.625,-0.087242857,-0.035525,0.005082112,,,
316,-24.8125,23.5625,16.875,-0.090431633,-0.024115102,0.003388071,,,
317,-29.375,17.125,18.375,-0.097357347,-0.018435102,0.005381061,,,
318,-33.5625,11.5625,18.875,-0.109165306,-0.027553061,0.00866948,,,
319,-11.75,7.375,17.6875,-0.11394898,-0.022819694,0.010164224,,,
320,-18.375,1.75,17.125,-0.119280612,-0.026905306,0.009466673,,,
321,-8.625,-6.5625,19.6875,-0.117536735,-0.031987449,0.011459694,,,
322,8.375,-12.125,20.5625,-0.123266327,-0.03821551,0.013253367,,,
323,34.3125,-17.1875,19.6875,-0.117934694,-0.052814082,0.010612653,,,
324,106.375,-17.0625,18.1875,-0.111657143,-0.057896224,0.015445612,,,
325,147.188,-16.0625,10.375,-0.099599388,-0.041553776,0.009466673,,,
326,121.125,-20.25,7.75,-0.094417653,-0.029296837,0.001096143,,,
327,80.125,-26,2.6875,-0.092225408,-0.038315102,0.002690531,,,
328,74.5,-27.5,-1.25,-0.087492041,-0.041703163,0.004633694,,,
329,89,-24,-6.5,-0.085200102,-0.023068776,0.006277898,,,
330,41.375,-28.0625,-16.625,-0.089933469,-0.005381061,-0.004334745,,,
331,14.4375,-32.875,-16.125,-0.09501551,-0.018584592,0.007473694,,,
332,25.4375,-38.5625,-11.75,-0.100446429,-0.016292653,0.020727041,,,
333,55.9375,-57.8125,14.3125,-0.100296939,0.041503878,0.022371224,,,
334,30.3125,-21.375,-10.5,-0.111557143,-0.038813367,0.014150204,,,
335,96.5625,-27.5625,-26.9375,-0.102090816,-0.017388776,-0.010861735,,,
336,48.25,-33.25,4.9375,-0.102987755,0.003338245,0.012555816,,,
337,25.5625,-31.25,19.4375,-0.104731633,-0.01733898,0.016790918,,,
338,1.6875,-31.625,21.6875,-0.108318367,-0.009317204,0.0142,,,
339,-112,-55,145.5,-0.132732653,0.098553061,-0.000149473,,,
340,-61.1875,-202.812,-39,-0.109614286,-0.06407449,0.177873469,,,
341,294.812,-57.25,228.25,-0.022769898,0.006078602,0.070153061,,,
342,302.188,24.9375,270.562,0.011758571,0.047781837,0.037767041,,,
343,184.938,74.4375,84.9375,-0.008171235,0.180614286,-0.013701735,,,
344,-149.562,78.875,130.25,-0.136469388,0.239507143,-0.043447041,,,
345,-373.312,-39.5625,152.312,-0.077327755,0.042649898,0.077427449,,,
346,-295.688,-68.1875,69.4375,-0.043845714,-0.048130612,0.090182551,,,
347,-7.625,-38.4375,35.5,-0.000298948,-0.016292653,0.088239388,,,
348,141,37.75,82.8125,-0.071448469,0.056999388,0.074587449,,,
349,119.375,70.9375,124.688,-0.086196633,0.129593878,0.040108776,,,
350,-78.8125,56.875,110.438,-0.056501122,0.12087449,0.039311633,,,
351,-182.938,32.875,67,-0.061433776,0.051618265,0.053262551,,,
352,-144.375,21.75,65.4375,-0.061782551,0.018933367,0.073242143,,,
353,-64.5,29.375,97.0625,-0.045141122,0.030492653,0.073790306,,,
354,-35.25,20.375,109.312,-0.044842143,0.056600816,0.069605,,,
355,-50.5625,9.375,108.938,-0.033531939,0.056501122,0.059291327,,,
356,-92.75,12.1875,93.6875,-0.024613367,0.056650612,0.057049184,,,
357,-137.25,43.125,101,-0.017737551,0.064124286,0.073192347,,,
358,-102.188,79.5625,98.0625,-0.021574082,0.061782551,0.049625306,,,
359,-70.625,101.75,100.188,-0.048180408,0.080068163,0.037667449,,,
360,-72.8125,108.938,106.875,-0.073441531,0.116539796,0.031788061,,,
361,-158.375,99.5,124.562,-0.071847143,0.115293878,0.037966327,,,
362,-195.688,77.5625,135.062,-0.059789592,0.075833061,0.063177653,,,
363,-161.812,39.625,137.5,-0.067910918,0.053561429,0.080317245,,,
364,-102.25,23.4375,147.375,-0.042151633,0.040806327,0.081064694,,,
365,-52.3125,28.125,149.625,-0.026407041,0.071149592,0.070452041,,,
366,-56.0625,28.5,152.75,-0.030791633,0.093221837,0.058245,,,
367,-80.3125,20.9375,155.312,-0.032186735,0.088388878,0.053611327,,,
368,-91.375,11.375,154.375,-0.02556,0.080516531,0.051169898,,,
369,-70.25,7.5625,159.375,-0.022919286,0.085499082,0.046685714,,,
370,-49,6.875,165.562,-0.02954602,0.085399388,0.044094796,,,
371,-34.4375,13.1875,168.625,-0.030741837,0.089883571,0.033282857,,,
372,-36.6875,21.3125,178.062,-0.035624592,0.090381837,0.030841429,,,
373,-38.0625,27.0625,184.062,-0.035823878,0.092275204,0.036471633,,,
374,-40,36.5,192.688,-0.02969551,0.086844286,0.036421837,,,
375,-34.0625,56,201.5,-0.028848469,0.082210612,0.036770612,,,
376,-21.1875,75.125,199.188,-0.039859694,0.089036633,0.031738265,,,
377,-33.25,89.5,197.375,-0.04857898,0.092325,0.029197245,,,
378,-45.9375,100.5,190.188,-0.05510602,0.090132755,0.026357245,,,
379,-48.375,108.688,184.312,-0.060985306,0.093869592,0.024962143,,,
380,-49.5625,116.375,183.562,-0.062878673,0.091278673,0.022171939,,,
381,-44,125.938,183,-0.064174082,0.090033061,0.021623878,,,
382,-35.3125,136.625,171.312,-0.071249184,0.097805714,0.016691224,,,
383,-42.6875,143.812,156.938,-0.089285714,0.088936939,0.010612653,,,
384,496.875,-251.5,-444.375,-0.357590816,0.035923571,-0.00866948,,,
385,617.438,-348.062,-417.125,-0.455047959,0.042948776,-0.026157959,,,
386,649.312,-465.875,-319.688,-0.460279592,0.095065408,-0.056451327,,,
387,538.75,-557.062,-225.75,-0.422861224,0.145736735,-0.076181837,,,
388,340.188,-607.062,-147.438,-0.385094898,0.144441837,-0.092125714,,,
389,213.562,-633.062,-85.625,-0.349868367,0.134227551,-0.108269388,,,
390,138.188,-645.812,-14.5625,-0.294164286,0.132035714,-0.110461224,,,
391,56.9375,-644.188,41.6875,-0.256895918,0.144341837,-0.081662551,,,
392,-8.3125,-639.625,62.3125,-0.201091837,0.111258163,-0.076181837,,,
393,0.75,-613.375,76.25,-0.158790816,0.12087449,-0.068757959,,,
394,-58.8125,-581.75,129.312,-0.132782653,0.152064286,-0.062280816,,,
395,-131.812,-567.438,167.75,-0.094517347,0.129443878,-0.048927755,,,
396,-149.812,-541.938,206.875,-0.044593061,0.124960204,-0.053661122,,,
397,-192.5,-505.812,256.062,-0.006925622,0.101592347,-0.049475816,,,
398,-202.312,-452.312,251.688,0.023567041,0.074188878,-0.063476531,,,
399,-223.812,-380.312,178.938,0.027901837,0.081363571,-0.055953061,,,
400,-192.062,-260,151.5,0.008470184,0.064522857,-0.085100408,,,
401,-139.625,-123.25,131.938,0.04374602,-0.006726327,-0.110909184,,,
402,-85,-19.4375,101.562,0.099350306,-0.035026735,-0.120376531,,,
403,-58.625,47.1875,41.125,0.075185306,-0.040507449,-0.123714286,,,
404,-62,77.8125,-36.5,0.089036633,-0.054408469,-0.107820408,,,
405,-37.25,80,-75.6875,0.094517347,-0.063875204,-0.098204286,,,
406,-5.5625,77.1875,-89.625,0.098353776,-0.017588061,-0.079470306,,,
407,10.0625,79,-90,0.094766429,-0.002042806,-0.054508163,,,
408,25.0625,82.1875,-72.875,0.091627449,-0.001694041,-0.031190204,,,
409,41.1875,90.125,-57,0.095264694,0.00298948,-0.007224571,,,
410,51.3125,109,-63.375,0.095663265,-0.003786673,0.010712245,,,
411,58.375,129.062,-71.75,0.092125714,-0.013851224,0.021574082,,,
412,68.125,153.5,-77.4375,0.091926429,0.003587367,0.028798673,,,
413,78.25,182.312,-66.6875,0.094317959,-0.001195796,0.032635102,,,
414,100.5,204.375,-61.0625,0.086445714,0.005530531,0.038414796,,,
415,112,210.875,-67.0625,0.076132041,0.023567041,0.038863163,,,
416,115.875,214.75,-54.75,0.063875204,0.035325612,0.053710918,,,
417,119.562,212.25,-37.6875,0.054408469,0.042500408,0.062181122,,,
418,93.0625,195.125,-21.9375,0.052066735,0.044642857,0.069156531,,,
419,101.125,113.812,-9.0625,0.025211224,0.042500408,0.103734694,,,
420,95.375,97.8125,-3.25,0.036222449,0.035873673,0.105329592,,,
421,95.125,88.1875,-7.0625,0.037019694,0.04544,0.10632551,,,
422,86.875,74.25,-12.1875,0.032784592,0.048379694,0.103684694,,,
423,81.0625,61.125,-20.25,0.027851939,0.051767755,0.097257653,,,
424,74.1875,42.1875,-21.0625,0.020577551,0.051917245,0.096161531,,,
425,55.4375,27.9375,-16.875,0.025261122,0.052465306,0.097207857,,,
426,46.4375,20.0625,-15.4375,0.029944592,0.053810612,0.095214796,,,
427,40.3125,4.8125,-22.8125,0.031439286,0.057696939,0.090929898,,,
428,30.1875,-6.9375,-37.0625,0.034877245,0.050771327,0.088787449,,,
429,26.9375,1,-46.875,0.038165612,0.048080714,0.088986735,,,
430,40.1875,1.1875,-54.8125,0.027154388,0.056750204,0.086146735,,,
431,32,-6.5625,-65.3125,0.033482143,0.061184592,0.082210612,,,
432,23.9375,-12.1875,-80.0625,0.03990949,0.05226602,0.081363571,,,
433,18.6875,-8.875,-92.9375,0.042699694,0.050223265,0.082459694,,,
434,10.4375,4.0625,-104.125,0.038365,0.051169898,0.081064694,,,
435,-6.4375,19.375,-111.375,0.036621122,0.042500408,0.080018367,,,
436,-13.0625,37.5625,-111.312,0.036670918,0.038813367,0.078872347,,,
437,-8,51.5,-114.438,0.028499694,0.048778265,0.073292041,,,
438,-17.5625,61,-117.625,0.023118571,0.060387449,0.074637245,,,
439,-33,73.6875,-125.062,0.023068776,0.066765,0.073989592,,,
440,-49.75,85.5,-139.438,0.019531224,0.062978367,0.076281531,,,
441,-58.625,101.25,-152.875,0.015993673,0.056451327,0.075484286,,,
442,-69,119.75,-162.75,0.009715796,0.048130612,0.075882857,,,
443,-73.875,130.188,-167.688,4.98246E-05,0.039560714,0.073341837,,,
444,-79.625,133.875,-175.062,-0.009915102,0.02854949,0.071597959,,,
445,-71.1875,129.562,-182.625,-0.022421122,0.022421122,0.072843571,,,
446,-63.0625,127.938,-184.875,-0.027353673,0.021125612,0.076580408,,,
447,-59.5625,130.812,-181.312,-0.030941122,0.02685551,0.078523571,,,
448,-60,132.125,-179.188,-0.03990949,0.021723571,0.076680102,,,
449,-42,133.562,-173.375,-0.048877959,0.020228776,0.075683571,,,
450,-21.375,131,-165.625,-0.057348163,0.026407041,0.075932755,,,
451,-44.8125,132.5,-153.188,-0.056252041,0.03821551,0.079769184,,,
452,-68.3125,140.938,-140.562,-0.062081429,0.02869898,0.072096224,,,
453,-79.25,146.625,-129.5,-0.065768469,0.020876531,0.064921429,,,
454,-78.625,154.812,-112.812,-0.070352347,0.018584592,0.059640102,,,
455,-89.3125,158.562,-97.8125,-0.077875918,0.01534602,0.051468878,,,
456,-108.188,156.5,-86.0625,-0.086645,0.006078602,0.044991633,,,
457,-162.375,125.5,-38.25,-0.105578571,-0.061583265,0.013402857,,,
458,-132.938,113.25,-36.1875,-0.110511224,-0.065270204,0.010961429,,,
459,-104.312,102.25,-30.25,-0.112205102,-0.066964286,0.006477204,,,
460,-82.4375,93.9375,-27.9375,-0.108817347,-0.067612041,0.005729827,,,
461,-71.0625,86.8125,-24.9375,-0.10657449,-0.059390918,-0.000797194,,,
462,-69.375,81.875,-26.0625,-0.102987755,-0.056301837,-0.000747369,,,
463,85.875,23,17.3125,-0.12087449,-0.030094082,0.008470184,,,
464,79.875,10.0625,24.625,-0.10662449,-0.029446327,0.004534041,,,
465,70.3125,3.875,26.5625,-0.095812755,-0.029844898,-0.001345265,,,
466,66.125,3.8125,27.375,-0.085748163,-0.037418265,-0.002092633,,,
467,75.125,9.0625,27,-0.081513061,-0.035076531,-0.002491235,,,
468,75.5625,13.8125,19,-0.078075204,-0.02386602,-0.002541051,,,
469,54.125,21.1875,11.5,-0.079520102,-0.012007755,-0.00184351,,,
470,34.9375,23.9375,6.5,-0.088189592,-0.006825969,0.001943163,,,
471,34.125,18.5,7.5625,-0.10069551,-0.011409796,0.004733337,,,
472,45.125,3.5625,18.5,-0.108318367,-0.002740357,0.012256837,,,
473,79,-18.4375,65.0625,-0.109714286,0.13512449,0.003138949,,,
474,-165.75,-18.125,65.5625,-0.12102449,-0.003886316,0.051767755,,,
475,-29.6875,-19.4375,-5.5,-0.065021122,-0.093819796,0.019680714,,,
476,58.6875,-16.5625,10.0625,-0.103983673,-0.030293367,0.013203571,,,
477,82.0625,-20.75,25.625,-0.10199102,-0.009616153,0.001594388,,,
478,23.625,-27.5625,20.1875,-0.108767347,-0.003537551,0,,,
479,-28.75,-33.1875,19.0625,-0.108767347,-0.016790918,0.001345265,,,
480,-46.875,-41.375,19.875,-0.105080612,-0.027553061,0.006377551,,,
481,-35.25,-43.625,22.3125,-0.103884694,-0.032336224,0.009367031,,,
482,-17.0625,-45.75,23.8125,-0.104382653,-0.029097551,0.01121051,,,
483,-7.875,-47.4375,23.6875,-0.105279592,-0.023816122,0.010363469,,,
484,-2.6875,-47.5,22,-0.104332653,-0.025211224,0.010263878,,,
485,8.8125,-45.5625,19.125,-0.105030612,-0.028748776,0.010064571,,,
486,26.0625,-44.0625,18.8125,-0.10667449,-0.027901837,0.00852001,,,
487,32.5625,-43.125,18.875,-0.107471429,-0.027901837,0.007224571,,,
488,36.5,-41.6875,19.625,-0.103734694,-0.027901837,0.006925622,,,
489,37.375,-40.4375,19.375,-0.102289796,-0.026058265,0.006078602,,,
490,35.8125,-40.25,18.5625,-0.098702551,-0.025111633,0.006277898,,,
491,33.4375,-39,18.0625,-0.097606429,-0.023118571,0.005978959,,,
492,90.5,-20.25,9.1875,-0.09546398,0.001345265,0.026008469,,,
493,63,-14.0625,4.75,-0.096061837,0.007772643,0.025510204,,,
494,52.4375,-12.75,6.4375,-0.096809184,0.008918602,0.027353673,,,
495,38.25,-11.3125,5.875,-0.097058367,0.008370531,0.029595816,,,
496,28,-7.3125,8.0625,-0.094766429,0.011310204,0.028300408,,,
497,20.375,-4.625,10.125,-0.095862551,0.01165898,0.030243571,,,
498,12.75,-1.75,11.375,-0.093172041,0.013103878,0.032037245,,,
499,4.8125,0.8125,9,-0.090232347,0.011160714,0.033432347,,,
500,0.0625,3.25,6.4375,-0.08679449,0.010463163,0.034777551,,,
501,-3.0625,6.875,1.5,-0.085349592,0.009815449,0.034279388,,,
502,-4.5625,12.0625,-6.1875,-0.085797959,0.008121408,0.036571224,,,
503,-4,14.6875,-11.9375,-0.087691327,0.0095165,0.036820408,,,
504,-8,16.1875,-19.375,-0.089086429,0.008320714,0.035176224,,,
505,-12.25,20.4375,-26,-0.088986735,0.007374041,0.036521429,,,
506,-15.3125,25.375,-32.5,-0.089435204,0.007174745,0.036172653,,,
507,-20.625,27,-39.5625,-0.092574184,0.006028776,0.032734796,,,
508,-25.0625,26.75,-42.4375,-0.094019082,0.004085622,0.033581837,,,
509,-31.625,25.625,-46.3125,-0.094915918,-0.000199298,0.03238602,,,
510,-29.6875,28.875,-50.125,-0.094168571,-0.002291929,0.028649184,,,
511,-27.625,27.0625,-50.875,-0.096709592,-0.000298948,0.02670602,,,
512,-32.625,26.3125,-51.0625,-0.097506735,-0.003138949,0.026257551,,,
513,-33.8125,28.875,-51.9375,-0.099898367,-0.004384571,0.025310918,,,
514,-35.5625,33.1875,-51.875,-0.10647551,-0.003786673,0.022620408,,,
515,-41.5625,32.5625,-51.4375,-0.109763265,-0.008868786,0.018435102,,,
516,-31.1875,31.0625,-51.25,-0.11365,-0.016591633,0.022072347,,,
517,-19.3125,32.0625,-47.5625,-0.120276531,-0.016940408,0.019929796,,,
518,-24.5625,31.75,-42.875,-0.125408163,-0.019032959,0.015545306,,,
519,-37.1875,27.1875,-33.625,-0.124013265,-0.027901837,0.0142,,,
520,-44,18.4375,-20,-0.112952041,-0.03821551,0.013402857,,,
521,-42.4375,9.0625,-6.4375,-0.101741837,-0.040009184,0.012007755,,,
522,-43.125,-0.625,2.8125,-0.092574184,-0.03706949,0.010413367,,,
523,-45.5,-11.4375,7.0625,-0.085100408,-0.036172653,0.009267378,,,
524,-42.6875,-21.0625,9.5,-0.078324286,-0.038863163,0.008420357,,,
525,-27.625,-29.6875,11.875,-0.074786735,-0.037318673,0.008968429,,,
526,-13.75,-35.6875,13.875,-0.077576939,-0.031489184,0.009217551,,,
527,-9.75,-40.6875,17,-0.085349592,-0.025061735,0.008619663,,,
528,-11.4375,-45.875,21.8125,-0.096659796,-0.025360714,0.008719306,,,
529,-9.0625,-49.875,29.625,-0.103784694,-0.026955102,0.012705306,,,
530,-6.6875,-53.3125,39.4375,-0.108916327,-0.029944592,0.016143163,,,
531,0.3125,-56.0625,52.125,-0.110361224,-0.036521429,0.019929796,,,
532,11.75,-58.875,62.9375,-0.108817347,-0.034428776,0.022919286,,,
533,10.4375,-67.0625,72.125,-0.100346735,-0.030891224,0.026755816,,,
534,20.875,-72,73.6875,-0.097805714,-0.039660408,0.032037245,,,
535,46.5625,-76.8125,75.25,-0.096061837,-0.036969898,0.038315102,,,
536,60.625,-80.125,72.625,-0.092972755,-0.032884286,0.042251224,,,
537,70.3125,-87.5,62.125,-0.088538367,-0.03153898,0.041952347,,,
538,92.25,-96.4375,46.375,-0.086246429,-0.027503163,0.044045,,,
539,114.188,-94.125,28.1875,-0.078872347,-0.025460408,0.043148163,,,
540,142.688,-79.5,11.1875,-0.074836531,-0.013801429,0.036770612,,,
541,151.062,-61,3.0625,-0.077527143,0.010562857,0.030691939,,,
542,119.812,-49.6875,-1.3125,-0.08066602,0.025161429,0.031339694,,,
543,74.375,-38.125,-7.625,-0.079868878,0.029097551,0.029595816,,,
544,31.9375,-27.375,18.0625,-0.085797959,0.029396531,0.038913061,,,
545,6.4375,-19.8125,50.75,-0.094268163,0.035823878,0.024663163,,,
546,-36.3125,-8.1875,94.9375,-0.099200816,0.061932041,0.01449898,,,
547,-135.5,28.625,128.25,-0.060088469,0.061085,-0.001096143,,,
548,-203.125,24.5625,-86.5,-0.135473469,-0.105528571,0.100595918,,,
549,-40.6875,-70.1875,-110.062,-0.146633673,-0.12760102,0.140007143,,,
550,218.625,-53.1875,43.5,-0.065967755,-0.097008571,0.087292755,,,
551,362.438,18.1875,16.9375,-0.062529898,0.09347102,0.018584592,,,
552,42.625,22.25,-10.8125,-0.096360816,0.143145918,-0.03138949,,,
553,-154.562,-13.1875,16.6875,-0.1137,0.062679388,0.017936837,,,
554,-163.438,-36.125,24.625,-0.085847857,0.004484214,0.054956531,,,
555,22,26.25,43.8125,-0.040507449,-0.041454082,0.082957959,,,
556,128.062,48.3125,16.4375,-0.065569184,0.027054796,0.058992347,,,
557,75.25,68.3125,33.125,-0.111308163,0.075085714,0.04005898,,,
558,-70.125,58.9375,64.4375,-0.111208163,0.078623265,0.036670918,,,
559,-137.812,50.9375,56.875,-0.093122245,0.050671633,0.03721898,,,
560,-124.438,53.1875,51.5,-0.10682449,0.027303878,0.046934796,,,
561,-75.125,54.625,51.9375,-0.110959184,0.015096837,0.055654082,,,
562,-19.8125,53.75,48.875,-0.109016327,0.019381735,0.047731939,,,
563,-20.5625,43,41.9375,-0.116688776,0.023666735,0.044842143,,,
564,-45,28.5625,45.8125,-0.114546939,0.021723571,0.034428776,,,
565,-51.1875,15.125,58.75,-0.111607143,0.010911633,0.030393061,,,
566,-33.75,8.3125,71.4375,-0.099898367,0.018036531,0.024264592,,,
567,-24.6875,3.75,76,-0.096659796,0.033033673,0.018734082,,,
568,-30.5,-3.625,74.0625,-0.101293469,0.048080714,0.019531224,,,
569,-40,-13.625,73.375,-0.105578571,0.050422551,0.02386602,,,
570,-26.5625,-25.8125,76.125,-0.110012245,0.045539694,0.028997959,,,
571,0.1875,-44.75,87.125,-0.112305102,0.049974082,0.033233061,,,
572,19.5,-62.6875,93.75,-0.105279592,0.051120102,0.034279388,,,
573,27.8125,-85.125,95.5,-0.095613469,0.048877959,0.037318673,,,
574,43.25,-101.312,91.625,-0.076779694,0.045141122,0.036073061,,,
575,55.9375,-104.438,81,-0.053810612,0.041553776,0.030941122,,,
576,71.75,-91.3125,65.1875,-0.034578265,0.04987449,0.027851939,,,
577,64.25,-71.75,46.8125,-0.028748776,0.060536939,0.025011939,,,
578,45.3125,-59.6875,28.1875,-0.032186735,0.067462551,0.023467347,,,
579,17.8125,-58.875,11.9375,-0.038514388,0.064772041,0.024962143,,,
580,-9.6875,-64.8125,8.125,-0.050173367,0.053113061,0.037916531,,,
581,2.5625,-73.1875,19.9375,-0.079918673,0.094367857,0.031987449,,,
582,-51.5,-70.0625,65.1875,-0.079868878,0.122967347,0.021972653,,,
583,-143.438,-19.0625,97.5625,-0.039461122,0.11340102,-0.002192286,,,
584,-209.188,69.0625,101.188,0.010762143,0.066216939,0.004085622,,,
585,-200.25,141.75,72.1875,0.027802143,0.01718949,0.040108776,,,
586,-127.688,36.5,-90.5,-0.120276531,-0.035325612,0.13492551,,,
587,13.25,-127.375,-127.875,-0.123565306,-0.006477204,0.149623469,,,
588,249.562,-71.3125,16.25,-0.012107347,0.02301898,0.07543449,,,
589,327.812,14.0625,111.938,-0.006128429,0.06407449,0.05226602,,,
590,223.375,40.8125,70.6875,-0.020976122,0.160435714,0.017737551,,,
591,-27.5625,39.9375,39.625,-0.041354388,0.159837755,0.00652702,,,
592,-211.25,53.1875,51.25,-0.042550204,0.092972755,0.018534796,,,
593,-159.938,71.3125,78.5625,-0.044493367,0.072096224,0.039710204,,,
594,-130.312,62.125,86.8125,-0.013552245,0.022122143,0.075484286,,,
595,-47.6875,45.3125,16.75,-0.024264592,0.036621122,0.065270204,,,
596,16.625,44.375,-4.25,-0.043496939,0.064323571,0.056750204,,,
597,0.625,49.6875,24.3125,-0.073341837,0.077676531,0.057348163,,,
598,-16.0625,43.6875,37.3125,-0.053760714,0.088488571,0.05141898,,,
599,-43.5625,34.625,16.6875,-0.056052653,0.074437959,0.051020408,,,
600,-40.875,20.375,11.8125,-0.070252755,0.056451327,0.052515102,,,
601,-16.5,9.75,17.375,-0.058842857,0.045689184,0.054009898,,,
602,6.3125,2.625,21.25,-0.052614796,0.05525551,0.050472347,,,
603,-7.375,-3.25,20.6875,-0.050721429,0.065070918,0.045888469,,,
604,-27.5625,-5.3125,16.875,-0.051219694,0.064174082,0.050571939,,,
605,-38.4375,-9.375,14.0625,-0.055803571,0.060387449,0.057148878,,,
606,-43.125,-21.0625,14.6875,-0.064373367,0.060287755,0.060437245,,,
607,-27.375,-25.25,16.1875,-0.07214602,0.057647041,0.072445,,,
608,-3.625,-35.375,11.25,-0.088488571,0.056550918,0.088637959,,,
609,15.625,-46.6875,19.75,-0.078673061,0.057198673,0.091826735,,,
610,35.0625,-31.6875,30.1875,-0.059341122,0.055355102,0.079918673,,,
611,46.3125,5.375,11.1875,-0.048778265,0.057696939,0.061334082,,,
612,48.375,26.9375,0.1875,-0.064522857,0.076181837,0.07214602,,,
613,8.6875,36.4375,4.75,-0.059640102,0.077477245,0.056600816,,,
614,-52.6875,54.8125,10.3125,-0.056600816,0.049525714,0.04857898,,,
615,-48.5625,83.5,29.875,-0.042550204,0.033282857,0.064522857,,,
616,-30.4375,99.5,38.5,-0.02570949,0.029047755,0.062928469,,,
617,-51.0625,83.375,38.4375,-0.029296837,0.052315816,0.057447755,,,
618,-96.1875,61.0625,30.875,-0.024164898,0.025011939,0.057597245,,,
619,-71.125,58.1875,21.6875,-0.008171235,-0.002042806,0.044792347,,,
620,-21.3125,67.3125,13.875,-0.013402857,0.013004184,0.039361429,,,
621,-8.9375,66.9375,15.4375,-0.039062449,0.056351633,0.042201429,,,
622,-36.0625,60.0625,19.0625,-0.049675102,0.083356633,0.051020408,,,
623,-39,55.1875,3.3125,-0.04857898,0.08918602,0.062280816,,,
624,-8.8125,58.5625,-8.9375,-0.063526429,0.104930612,0.069555204,,,
625,-7,55.0625,-22.6875,-0.079619694,0.116240816,0.065021122,,,
626,-13.125,54.125,-28.5,-0.083605714,0.115243878,0.064572653,,,
627,-8.0625,55.1875,-42.6875,-0.079819082,0.107521429,0.056052653,,,
628,-1.9375,55.125,-56.875,-0.075334796,0.098852041,0.050571939,,,
629,-4.1875,47.5,-68.1875,-0.069355918,0.085847857,0.039162143,,,
630,-3.5,40,-68.75,-0.062978367,0.063327041,0.034329184,,,
631,10.375,31.375,-68.375,-0.058842857,0.046436531,0.020776837,,,
632,14.8125,14.6875,-63.0625,-0.059739694,0.045340408,0.014997245,,,
633,4.25,-12.8125,-50.5,-0.060188163,0.038115816,0.013801429,,,
634,-0.5,-41.375,-33.0625,-0.058344592,0.021673673,0.021773367,,,
635,16.5625,-58.9375,-14.5625,-0.049276531,0.013153673,0.028599286,,,
636,38.375,-64.25,-4.3125,-0.04857898,0.031140408,0.03692,,,
637,26.75,-69.1875,-7.4375,-0.062978367,0.047383163,0.055953061,,,
638,8.875,-65.75,-7.25,-0.074238673,0.052913776,0.079520102,,,
639,11.25,-49.4375,-8.9375,-0.083406429,0.058743265,0.090481531,,,
640,26.0625,-27.75,-16.625,-0.091228878,0.060586735,0.094517347,,,
641,30.5,-8.1875,-15.1875,-0.091577653,0.060437245,0.092823265,,,
642,19.75,16.1875,-8.0625,-0.085150306,0.061782551,0.098054898,,,
643,-5.5,40.875,-10.375,-0.087292755,0.058045714,0.095165,,,
644,-28.625,63.875,-9.5625,-0.086694796,0.04105551,0.087691327,,,
645,-34.1875,80.5,2.4375,-0.07543449,0.02570949,0.072494796,,,
646,-26.875,87.9375,16.1875,-0.056700408,0.015595102,0.054508163,,,
647,-21.4375,88.75,27.625,-0.035475102,0.013552245,0.040258265,,,
648,-22.8125,85.5,36.1875,-0.021574082,0.014100408,0.030642143,,,
649,-36.5625,78.5,44.875,-0.018484898,0.018136122,0.031140408,,,
650,-44.4375,70.5,54.125,-0.022819694,0.030841429,0.035475102,,,
651,-50.25,60.8125,53,-0.02585898,0.055703878,0.047881429,,,
652,-53.6875,61.0625,47.5,-0.02685551,0.076480816,0.056202143,,,
653,-38.1875,68.5625,41.4375,-0.036023163,0.103884694,0.063875204,,,
654,-44.5625,73.75,29.3125,-0.064971327,0.132234694,0.062081429,,,
655,-83.125,71.75,37.75,-0.093421122,0.129942857,0.056252041,,,
656,-96.125,65,64.5625,-0.091876633,0.120226531,0.06123449,,,
657,-80.875,59.4375,73.3125,-0.083207143,0.125109184,0.064821837,,,
658,-69.75,53.75,71,-0.076480816,0.12795,0.063227449,,,
659,-73.625,47.125,77.875,-0.07214602,0.121970408,0.061134796,,,
660,-89.5625,35.0625,94.125,-0.062679388,0.112354082,0.064821837,,,
661,-105.25,20.6875,109.438,-0.047632347,0.095115204,0.067462551,,,
662,-108.188,3.375,119.625,-0.035425306,0.078374082,0.065967755,,,
663,-98.5,-11.625,125.312,-0.023417551,0.072345306,0.063825306,,,
664,-94.5,-23.5,132.062,-0.016541735,0.078673061,0.056152347,,,
665,-99.875,-31.875,145.75,-0.012406327,0.083605714,0.051319388,,,
666,-105.875,-40.0625,159.438,-0.009416857,0.087940408,0.047582551,,,
667,-107.812,-46.4375,170.688,-0.009566327,0.092524286,0.047881429,,,
668,-111.188,-53.1875,180.438,-0.011409796,0.098852041,0.045788776,,,
669,-111,-58.375,192.5,-0.014000714,0.105777551,0.047283571,,,
670,-106.625,-57.0625,203.562,-0.015096837,0.119579592,0.048529184,,,
671,-94.875,-44.875,208.25,-0.01733898,0.139060204,0.049475816,,,
672,-88,-31.4375,205.188,-0.031788061,0.144391837,0.046934796,,,
673,-81.375,-17.625,213.188,-0.043696224,0.140256122,0.04558949,,,
674,-71.8125,-2.375,228.5,-0.045539694,0.133828571,0.044094796,,,
675,-59.375,12.6875,237.625,-0.039560714,0.130191837,0.039809898,,,
676,-43.6875,29.0625,237.125,-0.036670918,0.128397959,0.035325612,,,
677,-38.625,43.125,235.875,-0.038614082,0.116888776,0.033233061,,,
678,-35.125,54.375,235.188,-0.03976,0.105578571,0.034279388,,,
679,-37.5,63.6875,232.625,-0.036172653,0.093221837,0.039361429,,,
680,473.75,-196.562,-411.312,-0.24862449,0.091527857,-0.00866948,,,
681,527.812,-263.312,-376.812,-0.281957143,0.080516531,-0.009117908,,,
682,579.688,-339.125,-322.125,-0.296805102,0.088089898,0.000448421,,,
683,545.062,-415.188,-245.688,-0.273038776,0.096460408,-0.004185265,,,
684,467.438,-467.875,-180.688,-0.247628571,0.069953776,-0.001395092,,,
685,388.75,-507.5,-135.5,-0.253806122,0.059440816,0.004135439,,,
686,321.812,-531.062,-89.3125,-0.249770408,0.061085,-0.002291929,,,
687,241.062,-544.938,-41.5625,-0.255202041,0.102488776,-0.020926327,,,
688,94.3125,-553.188,4,-0.235969388,0.117785714,-0.034976837,,,
689,-19.5,-555.688,26.625,-0.202237755,0.087641531,-0.027054796,,,
690,-50.9375,-544.562,35,-0.177126531,0.078025306,-0.015545306,,,
691,-49.0625,-525.062,53.75,-0.155154082,0.085299796,-0.026207755,,,
692,-70.125,-500.375,80.1875,-0.13477551,0.108418367,-0.031887755,,,
693,-130.562,-482.312,103.25,-0.110162245,0.114745918,-0.033133367,,,
694,-175.25,-456.562,122.375,-0.084203571,0.115941837,-0.030343163,,,
695,-182.75,-419.688,164.188,-0.065668878,0.116639796,-0.031439286,,,
696,-168.688,-393,200.625,-0.025609898,0.131586735,-0.046984592,,,
697,-172.188,-359.812,226.625,0.031788061,0.108468367,-0.077377653,,,
698,-169.062,-305.25,212.312,0.10099449,0.08395449,-0.09217551,,,
699,-175.125,-222.312,107.312,0.121871429,0.085499082,-0.108567347,,,
700,-146.562,-136.5,21.8125,0.085748163,0.043646327,-0.132334694,,,
701,-119.312,-46.625,29.0625,0.107870408,-0.027702449,-0.132483673,,,
702,-47.1875,9.5625,25.3125,0.115792857,-0.036421837,-0.122817347,,,
703,-10.1875,55.3125,7.6875,0.104183673,-0.045240714,-0.119927551,,,
704,-34.9375,82.4375,-29.625,0.104332653,-0.037368469,-0.095862551,,,
705,-18.875,101,-71.375,0.10647551,-0.039361429,-0.073441531,,,
706,20.9375,128.688,-90.8125,0.101442959,-0.012954388,-0.049276531,,,
707,43.625,148.188,-107.562,0.100247143,0.004982459,-0.032684898,,,
708,42.4375,160.625,-102.375,0.093620408,0.015794388,-0.011808469,,,
709,42.1875,177.188,-100.562,0.094816224,0.021324898,0.012207041,,,
710,56.5625,199.125,-107.5,0.093122245,0.026407041,0.022022449,,,
711,83.125,218.375,-104.812,0.077228163,0.027752347,0.030891224,,,
712,99.375,232.312,-95.5625,0.06362602,0.037767041,0.04274949,,,
713,84.75,244,-88.5625,0.062978367,0.043397245,0.051867449,,,
714,85.1875,254.75,-93.25,0.056999388,0.044294082,0.061932041,,,
715,89.0625,258.625,-94.5,0.038813367,0.037119388,0.065021122,,,
716,101.5,255.875,-94.6875,0.027752347,0.046287041,0.070153061,,,
717,88.1875,244.75,-110.812,0.016691224,0.050073776,0.079619694,,,
718,71.25,237.312,-115.312,0.019132653,0.052066735,0.090730612,,,
719,41.0625,220.688,-129.25,0.015595102,0.043247755,0.096211327,,,
720,23.625,223.062,-150.938,0.018584592,0.031588776,0.095364286,,,
721,33.75,217.875,-182.688,-0.004135439,0.037567755,0.096211327,,,
722,27.375,188.188,-205.25,-0.032037245,0.048877959,0.094467449,,,
723,-9.0625,175.688,-207.5,-0.018833673,0.035674388,0.098403571,,,
724,8.5625,191.312,-214,-0.012306633,0.037169184,0.098951735,,,
725,22.625,193.125,-225.812,-0.038115816,0.047831633,0.095762959,,,
726,-5.1875,173.062,-230.188,-0.059241429,0.047433061,0.091428163,,,
727,-23.4375,162.5,-224.625,-0.053760714,0.050472347,0.09217551,,,
728,-20.25,170.938,-231.625,-0.051917245,0.048230204,0.092374796,,,
729,-19.4375,163.312,-237.875,-0.065469592,0.047781837,0.085200102,,,
730,-30.625,151.125,-235.125,-0.069007143,0.03408,0.077427449,,,
731,-25.1875,145.125,-225.438,-0.066864592,0.028948061,0.070202857,,,
732,-43.625,146.812,-214.062,-0.072096224,0.031140408,0.064672347,,,
733,-79.75,137.5,-204.75,-0.075085714,0.010961429,0.048529184,,,
734,-65.125,131.125,-201.375,-0.078324286,-0.002441408,0.04942602,,,
735,-53.5,140.25,-198.375,-0.101442959,-0.002541051,0.046635816,,,
736,-72.3125,150.688,-187.312,-0.118333673,-0.002242112,0.038763571,,,
737,-110.562,155.25,-174.312,-0.124711224,-0.021823163,0.028300408,,,
738,-88.8125,150,-158.688,-0.128596939,-0.048379694,0.03806602,,,
739,-22.6875,148.875,-140.812,-0.121273469,-0.053710918,0.050920714,,,
740,20.125,143.312,-126.938,-0.116738776,-0.04005898,0.046187449,,,
741,14.125,132.312,-119.188,-0.11384898,-0.032734796,0.038863163,,,
742,14.5625,115.938,-107.875,-0.108169388,-0.046037959,0.04673551,,,
743,45.625,104.812,-97.875,-0.103933673,-0.044991633,0.047283571,,,
744,70.375,92.75,-93.5,-0.104830612,-0.032983878,0.042649898,,,
745,66.5,83.4375,-91.75,-0.102488776,-0.026108061,0.042998673,,,
746,72.9375,75.1875,-86.5,-0.101393061,-0.03253551,0.040507449,,,
747,86.375,68.4375,-81.8125,-0.101393061,-0.028898265,0.03990949,,,
748,93.375,63.1875,-76.75,-0.100346735,-0.020079286,0.037966327,,,
749,82,56.25,-69.9375,-0.100296939,-0.015943878,0.036322143,,,
750,78.4375,51.6875,-63.4375,-0.09631102,-0.01818602,0.038265306,,,
751,84.375,46.625,-53.5,-0.093919388,-0.014299694,0.037119388,,,
752,79.1875,40.0625,-42.1875,-0.094218367,-0.010413367,0.037318673,,,
753,75.75,32.9375,-28.8125,-0.090481531,-0.012605612,0.038265306,,,
754,77.5625,24.125,-12.5625,-0.086744694,-0.010363469,0.038414796,,,
755,70.125,15.5,2.9375,-0.081861837,-0.011011224,0.037268776,,,
756,67.1875,7.8125,19.0625,-0.079769184,-0.014947347,0.036073061,,,
757,68.0625,0.3125,34.4375,-0.079569898,-0.015296122,0.033930612,,,
758,60.9375,-5.875,47.5625,-0.082011327,-0.014797959,0.031987449,,,
759,48.6875,-10.9375,59.5,-0.085449184,-0.01818602,0.031090612,,,
760,40.125,-15.25,70.75,-0.09217551,-0.02102602,0.030592347,,,
761,27.8125,-19.625,79.75,-0.098104694,-0.024214796,0.027951633,,,
762,16.8125,-24.6875,89.6875,-0.097755918,-0.030393061,0.027602857,,,
763,13.125,-28.9375,98.4375,-0.097706122,-0.034129898,0.027154388,,,
764,10.75,-33.125,104.812,-0.104980612,-0.031439286,0.025111633,,,
765,3.4375,-35.875,107.562,-0.110810204,-0.030143878,0.022620408,,,
766,1.75,-38.9375,109.125,-0.110212245,-0.034428776,0.02286949,,,
767,15.4375,-45.375,110.312,-0.108667347,-0.037418265,0.023616837,,,
768,34.875,-51.125,108.625,-0.110062245,-0.033880714,0.024912347,,,
769,43.9375,-49.5,102.688,-0.112653061,-0.024812653,0.030990918,,,
770,47.4375,-46.125,96.5,-0.11394898,-0.004932633,0.03537551,,,
771,33.625,-39.1875,82.5,-0.118432653,0.000996492,0.031140408,,,
772,18.625,-35.3125,70.1875,-0.114845918,-0.003089122,0.03408,,,
773,23.6875,-33.3125,64.5,-0.104781633,-0.005580357,0.036720714,,,
774,33.3125,-30.625,62.3125,-0.094218367,-0.002042806,0.036023163,,,
