Packet number,Gyroscope X (deg/s),Gyroscope Y (deg/s),Gyroscope Z (deg/s),Accelerometer X (g),Accelerometer Y (g),Accelerometer Z (g),Magnetometer X (G),Magnetometer Y (G),Magnetometer Z (G)
1,0.8125,-8.0625,-40.1875,-0.0986328,0.20752,1.03125,,,
2,-2.1875,-8.875,-42.1875,-0.0991211,0.184082,1.03418,,,
3,-1.4375,-10.625,-43.5625,-0.124512,0.166504,1.04736,,,
4,3.9375,-4.9375,-45.1875,-0.156738,0.156738,1.09424,,,
5,13,2.875,-46.6875,-0.181152,0.160645,1.1123,,,
6,18.3125,6.8125,-46.375,-0.211426,0.15918,1.11523,,,
7,15.8125,2.6875,-42.5625,-0.228027,0.150391,1.06934,,,
8,5.375,-6.4375,-36.5,-0.230469,0.130371,1.00146,,,
9,-18.875,-8.3125,-30.1875,-0.185547,0.0380859,0.967773,,,
10,-18.125,-7.8125,-29.0625,-0.17041,0.027832,0.988281,,,
11,-9.5625,-7.875,-27.5625,-0.148438,0.0498047,1.00684,,,
12,0.5625,-7.0625,-26.8125,-0.105957,0.0791016,1.00977,,,
13,16.6875,-2.4375,-30.4375,-0.0141602,0.172852,0.961426,,,
14,6.9375,-1.5,-34.1875,-0.00927734,0.197266,0.918945,,,
15,-7.375,-1.875,-35.5,-0.0195312,0.13623,0.914062,,,
16,-8.3125,-2.625,-35.6875,-0.019043,0.0507812,0.90332,,,
17,2.4375,-1.1875,-34.375,-0.015625,0.0317383,0.920898,,,
18,13.9375,-0.5,-31.5625,-0.0249023,0.0673828,0.916016,,,
19,17.375,-0.8125,-28.5,-0.0439453,0.119141,0.907715,,,
20,11.4375,-0.25,-26.375,-0.0415039,0.165039,0.909668,,,
21,1.75,-0.1875,-24.1875,-0.0302734,0.134766,0.911133,,,
22,-1.4375,0.8125,-22.25,-0.0297852,0.10791,0.935547,,,
23,0.5625,1.5,-20.375,-0.0415039,0.118652,0.945312,,,
24,2.625,1.5,-18.5,-0.0634766,0.130371,0.95752,,,
25,4.5625,0.125,-15.9375,-0.0839844,0.112793,0.967285,,,
26,9.1875,-1.3125,-13.1875,-0.101562,0.09375,0.990723,,,
27,13.25,-1.6875,-9.5625,-0.0878906,0.0688477,1,,,
28,17.6875,-1.9375,-7.125,-0.0649414,0.100098,1.04199,,,
29,17.375,-1.9375,-6.5,-0.059082,0.158691,1.05908,,,
30,11.875,-1.3125,-6.3125,-0.0673828,0.172363,1.07324,,,
31,10.1875,-3.0625,-6.4375,-0.0537109,0.162598,1.08398,,,
32,13.4375,-5.1875,-7.5625,-0.0742188,0.174316,1.07373,,,
33,16.0625,-5.3125,-9.0625,-0.118164,0.188477,1.04834,,,
34,16.875,-4.25,-10.6875,-0.128906,0.188477,1.03467,,,
35,18.4375,-0.375,-12.5625,-0.154297,0.217773,1.0293,,,
36,18.4375,4.125,-14.1875,-0.179688,0.283691,1.03613,,,
37,13.0625,3.75,-14.625,-0.199707,0.315918,1.00293,,,
38,3.75,0.4375,-12.5625,-0.195312,0.27832,0.978516,,,
39,-1.375,-4.3125,-9.625,-0.186035,0.23877,0.938477,,,
40,-3,-7.1875,-6.4375,-0.205078,0.215332,0.902832,,,
41,-6.25,-7.8125,-3.75,-0.216309,0.207031,0.904297,,,
42,-6.125,-8.3125,-2.4375,-0.196289,0.212402,0.913574,,,
43,-2.5625,-7.4375,-1.4375,-0.194336,0.246094,0.930664,,,
44,-0.625,-4.75,-1.6875,-0.179688,0.276855,0.944824,,,
45,0.125,-2.25,-3.625,-0.144531,0.294922,0.94873,,,
46,-1.375,-0.8125,-6,-0.113281,0.287598,0.939453,,,
47,-4.6875,-0.5,-8.5625,-0.090332,0.267578,0.935547,,,
48,-6.375,-0.625,-11.375,-0.0854492,0.236328,0.931641,,,
49,-4.9375,-1.625,-13.6875,-0.0942383,0.224121,0.928223,,,
50,-3.8125,-2.5,-15.0625,-0.103516,0.220703,0.929199,,,
51,-1.25,-3.5625,-15.75,-0.105469,0.224121,0.93457,,,
52,1.125,-4.375,-16.3125,-0.104004,0.251953,0.935547,,,
53,0.4375,-4.75,-17.25,-0.106934,0.270508,0.921387,,,
54,-3.8125,-4.875,-18.6875,-0.107422,0.273438,0.913086,,,
55,-8.5,-4.125,-20,-0.101074,0.251953,0.916992,,,
56,-9.8125,-3.25,-21.0625,-0.0888672,0.249023,0.94043,,,
57,-9.6875,-2.875,-22.625,-0.0864258,0.248047,0.937988,,,
58,-9,-3.1875,-24.375,-0.0805664,0.254883,0.93457,,,
59,-9.4375,-4.5625,-26.125,-0.0786133,0.251953,0.950684,,,
60,-8.25,-5.6875,-28.0625,-0.0839844,0.227051,0.948242,,,
61,-6.3125,-6.375,-30.8125,-0.100098,0.245117,0.958008,,,
62,-5.5,-7.375,-32.9375,-0.0996094,0.239746,0.968262,,,
63,-4.3125,-8.3125,-33.4375,-0.0766602,0.22168,0.985352,,,
64,-0.0625,-9.3125,-33.625,-0.0737305,0.226074,0.990723,,,
65,1.3125,-11.125,-33.4375,-0.0756836,0.245605,0.976074,,,
66,-0.6875,-13.0625,-33.75,-0.0888672,0.236816,0.97168,,,
67,-2.3125,-13.25,-34.375,-0.104004,0.193359,0.97998,,,
68,1,-14.75,-33.75,-0.0825195,0.165039,0.975098,,,
69,5.5625,-12.375,-32.875,-0.0859375,0.164551,1.00488,,,
70,11.25,-7.5,-33.25,-0.0805664,0.208496,1.01709,,,
71,11,-4.9375,-34.125,-0.104492,0.220215,1.021,,,
72,7.375,-2.4375,-33.6875,-0.131836,0.184082,1.03271,,,
73,6.6875,-2.3125,-31.125,-0.124512,0.114746,1.02539,,,
74,9.3125,-2.9375,-28.0625,-0.14502,0.100098,1.01172,,,
75,8.625,-3.5625,-26.0625,-0.178223,0.106445,0.977051,,,
76,2.375,-5.0625,-23.625,-0.17627,0.0869141,0.987305,,,
77,1.875,-7.75,-21.0625,-0.143555,0.0610352,0.994629,,,
78,2.9375,-8.5625,-18.9375,-0.115234,0.0678711,0.995117,,,
79,2.9375,-6.6875,-18.0625,-0.090332,0.0864258,0.994629,,,
80,1.9375,-4.9375,-18.625,-0.0683594,0.0922852,0.999512,,,
81,0.5625,-3.25,-20.4375,-0.0517578,0.117676,0.991211,,,
82,-3.6875,-2.3125,-22.3125,-0.0380859,0.121582,0.988281,,,
83,-6.125,-2.3125,-23.4375,-0.0146484,0.0952148,0.983887,,,
84,-5.1875,-3.0625,-24.5,-0.00341797,0.0678711,0.982422,,,
85,-2.25,-2.875,-24.75,0.000976562,0.0620117,0.976074,,,
86,0.125,-3,-24.6875,-0.00292969,0.0688477,0.970215,,,
87,0.875,-4,-23.875,-0.00439453,0.078125,0.968262,,,
88,0.0625,-4.9375,-22.8125,-0.0131836,0.0844727,0.961914,,,
89,-1.6875,-5.25,-21.375,-0.00878906,0.0800781,0.948242,,,
90,-2.375,-5.25,-20.0625,-0.00292969,0.0727539,0.951172,,,
91,-1.8125,-4.9375,-18.75,0.00488281,0.0703125,0.949219,,,
92,-0.6875,-3.875,-17.5,0.00439453,0.0776367,0.947266,,,
93,-0.625,-2.6875,-16.6875,0.015625,0.078125,0.95459,,,
94,-1,-1.75,-16.5625,0.0205078,0.090332,0.953613,,,
95,-2.3125,-0.625,-16.4375,0.0200195,0.0898438,0.964844,,,
96,-2.9375,-0.3125,-16.125,0.0302734,0.0805664,0.973633,,,
97,-1.9375,-1.25,-14.9375,0.0463867,0.0732422,0.963379,,,
98,-0.125,-2.1875,-13.8125,0.0375977,0.065918,0.975098,,,
99,1,-3.875,-12.5,0.015625,0.065918,0.984863,,,
100,1.625,-5.6875,-10.8125,0.0078125,0.065918,1.00049,,,
101,9.75,-11.1875,-7,-0.0512695,0.0698242,1.02979,,,
102,14.1875,-10.5,-7.375,-0.050293,0.0673828,1.05664,,,
103,24.25,-9.5,-8.9375,-0.0751953,0.128906,1.06494,,,
104,25.375,-5.5625,-10.375,-0.103516,0.137695,1.07373,,,
105,27.75,-1.25,-11.6875,-0.116211,0.138672,1.08301,,,
106,31.6875,2.875,-13.9375,-0.14209,0.187988,1.08057,,,
107,27.5,6.375,-16.6875,-0.168945,0.240234,1.07129,,,
108,18.6875,5.5,-17.625,-0.185547,0.244629,1.04297,,,
109,9.625,1.75,-18.125,-0.188965,0.216797,1.00732,,,
110,5.6875,-2.8125,-17.9375,-0.20166,0.177734,0.967285,,,
111,3.625,-7.75,-16.25,-0.204102,0.166992,0.937988,,,
112,1.6875,-10.9375,-14.5625,-0.21875,0.16748,0.937012,,,
113,0.9375,-11.5625,-13.625,-0.219238,0.183594,0.927246,,,
114,1.1875,-11.1875,-13.625,-0.22998,0.226074,0.931641,,,
115,-0.0625,-9.125,-15.25,-0.228516,0.250977,0.928223,,,
116,-2.8125,-6.3125,-18.125,-0.205078,0.262695,0.933594,,,
117,-6.375,-3.8125,-20.75,-0.169922,0.244141,0.946289,,,
118,-7.625,-3.5625,-22.9375,-0.154297,0.207031,0.922363,,,
119,-9.5625,-4.625,-24.75,-0.133789,0.181641,0.92041,,,
120,-7.625,-5.625,-27.3125,-0.104004,0.15918,0.903809,,,
121,-5.125,-6.5,-29.3125,-0.0834961,0.134277,0.903809,,,
122,-0.75,-6.75,-31.375,-0.0708008,0.145996,0.926758,,,
123,3.125,-6.9375,-33.25,-0.0625,0.174316,0.925781,,,
124,2.5625,-7.25,-34.875,-0.059082,0.213379,0.929199,,,
125,-2.625,-7.0625,-37.5625,-0.0454102,0.220703,0.927734,,,
126,-7.6875,-6.6875,-40,-0.0307617,0.199219,0.931152,,,
127,-8.8125,-5.6875,-42,-0.0249023,0.178711,0.937988,,,
128,-7,-4.8125,-44.5625,-0.0244141,0.195312,0.9375,,,
129,-5.8125,-4.125,-47.1875,-0.0205078,0.208984,0.95459,,,
130,-3.5,-3.875,-49.1875,-0.00927734,0.215332,0.965332,,,
131,0.5,-4.1875,-51.625,0.00488281,0.205078,0.968262,,,
132,0.375,-6.25,-53.75,-0.0297852,0.253418,0.958008,,,
133,-4,-7.4375,-51.625,-0.0332031,0.234863,0.974609,,,
134,-3.4375,-6.9375,-49.8125,-0.043457,0.229004,0.976562,,,
135,0.75,-7.6875,-43.1875,-0.0620117,0.212891,1.02686,,,
136,7,-8.125,-42.5,-0.0512695,0.223145,1.02637,,,
137,7.8125,-9,-40.625,-0.0551758,0.21875,1.03027,,,
138,2.125,-1.8125,-26.3125,-0.000488281,0.193848,0.95166,,,
139,-9.0625,0.0625,-33.25,0.0244141,0.151367,0.937012,,,
140,-7.375,-0.5625,-33.875,0.0375977,0.105957,0.928711,,,
141,0.5,-0.5625,-32.6875,0.0341797,0.0957031,0.925781,,,
142,8.5625,-0.375,-31,0.0185547,0.108887,0.915039,,,
143,10.1875,-0.75,-27.8125,0.0131836,0.130859,0.910645,,,
144,6,-0.5,-24.3125,0.0131836,0.155762,0.90625,,,
145,-0.875,0.0625,-20.625,0.00683594,0.160645,0.923828,,,
146,-6.5625,1.3125,-16.9375,0.00683594,0.152832,0.933594,,,
147,-9.3125,2.5625,-13.5,0.00683594,0.134766,0.949219,,,
148,-9.5625,2.875,-10.875,0.0112305,0.139648,0.975586,,,
149,-9.375,2.5625,-8.5625,0.00976562,0.14502,0.976562,,,
150,-9.4375,0.875,-5.9375,-0.0205078,0.129395,0.983887,,,
151,-8.0625,-1.4375,-3,-0.0444336,0.0922852,0.996094,,,
152,-2.375,-2.625,0.25,-0.0673828,0.0576172,1.01465,,,
153,7.625,-5.125,3.3125,-0.0639648,0.0444336,1.01318,,,
154,9.875,-1.5,1.1875,-0.0654297,0.161621,1.10156,,,
155,16.375,1.3125,0.8125,-0.0869141,0.132812,1.09912,,,
156,22.75,4.3125,-0.375,-0.0766602,0.180176,1.09717,,,
157,24.75,8.75,-3.3125,-0.108398,0.240234,1.09668,,,
158,21.875,12.375,-4.3125,-0.144043,0.285645,1.11035,,,
159,14.875,9.625,-3.4375,-0.165527,0.306641,1.06445,,,
160,-15.5,-5.125,1,-0.155273,0.237793,0.913574,,,
161,-24,-10.375,3.5,-0.203613,0.177734,0.879883,,,
162,-24.25,-12.9375,6.5625,-0.250488,0.145996,0.865723,,,
163,-16.75,-13,9.1875,-0.250977,0.15332,0.876465,,,
164,-7.9375,-10.125,11.125,-0.236816,0.195801,0.897461,,,
165,0.625,-6.3125,10.3125,-0.21875,0.233398,0.901855,,,
166,4.0625,-4,9,-0.174805,0.245605,0.893066,,,
167,2.6875,-1.625,7.75,-0.117188,0.252441,0.88623,,,
168,-4.9375,1.375,5.3125,-0.0820312,0.259277,0.878418,,,
169,-15.0625,3.375,1.1875,-0.0693359,0.223145,0.875977,,,
170,-19.875,3.875,-2.8125,-0.0649414,0.181641,0.884277,,,
171,-15.3125,3.75,-5.5625,-0.046875,0.140137,0.901367,,,
172,-3.75,3.9375,-7.4375,-0.0380859,0.152344,0.918945,,,
173,6.25,3.5,-9.25,-0.0454102,0.178223,0.901367,,,
174,8.9375,3.25,-11.0625,-0.050293,0.216797,0.90332,,,
175,4.75,3.1875,-12.5625,-0.0400391,0.241211,0.916016,,,
176,-2.5625,3,-13.5,-0.0498047,0.243164,0.916992,,,
177,-9.5625,2.3125,-13.875,-0.0551758,0.233887,0.93457,,,
178,-12.625,0.6875,-14.0625,-0.0537109,0.200195,0.952637,,,
179,-2.4375,-5.125,-16.625,-0.0664062,0.191895,1.0293,,,
180,5.375,-4.8125,-17.4375,-0.0976562,0.212891,1.03613,,,
181,4.9375,-7.125,-16.625,-0.0834961,0.256348,1.04346,,,
182,-2.4375,-8.5625,-15.625,-0.0654297,0.243164,1.03613,,,
183,-6.9375,-7.0625,-15.5625,-0.0444336,0.192871,1.06836,,,
184,-4.3125,-15.125,4.875,-0.027832,0.154785,0.954102,,,
185,-7.75,-8.75,3,0.00146484,0.171387,0.941895,,,
186,-12.875,-2.9375,-2.125,0.0214844,0.189453,0.923828,,,
187,-20.75,-1.5,-6.5,0.0219727,0.127441,0.907227,,,
188,-7.5625,0.3125,-9.0625,0.0498047,0.015625,0.897949,,,
189,6.5625,1.0625,-7.6875,0.0551758,0.0107422,0.898926,,,
190,15.5,1,-5.75,0.059082,0.0405273,0.89502,,,
191,15.25,0.375,-3.8125,0.0424805,0.0927734,0.883789,,,
192,5.9375,0.25,-1.375,0.034668,0.105469,0.899902,,,
193,-2.875,0.5625,0.5625,0.0410156,0.0927734,0.908203,,,
194,-6.25,1,1.75,0.0473633,0.0791016,0.935059,,,
195,-6.5,0.6875,2.875,0.0522461,0.078125,0.948242,,,
196,-6.6875,-0.4375,4,0.0429688,0.0771484,0.970215,,,
197,28.3125,15.125,-1.1875,-0.0634766,0.164062,1.07812,,,
198,34.4375,23.125,-3.5,-0.111816,0.22168,1.06299,,,
199,-23,67.375,38.5625,-0.0942383,0.166504,0.601562,,,
200,-24.25,75.8125,40.5,-0.108887,0.0932617,0.525879,,,
201,-33.75,93.25,37.75,-0.0800781,0.0185547,0.532715,,,
202,-36.75,110.75,26.9375,-0.11084,0.15918,0.566895,,,
